trials.thisRepN,trials.thisTrialN,trials.thisN,trials.thisIndex,thisRow.t,notes,trial.started,num_distr,fixation.started,target.started,mouse.started,fixation.stopped,trial.stopped,mouse.x,mouse.y,mouse.leftButton,mouse.midButton,mouse.rightButton,mouse.time,mouse.clicked_name,participant,session,date,expName,psychopyVersion,frameRate,expStart,
0,0,0,0,0.03247799997916445,,0.005573700007516891,5,0.03247799997916445,0.03247799997916445,0.01745460001984611,1.0444156999583356,1.6454373999731615,[-0.175],[-0.4777777777777778],[1],[0],[0],[1.6272555000032298],['target'],1,001,2024-10-09_13h56.29.694,Vision search,2024.1.5,None,2024-10-09 13h57.12.427129 +0530,
1,0,1,0,1.6858425999525934,,1.6496148000005633,10,1.6858425999525934,1.6858425999525934,0.02797429997008294,2.694065599993337,2.961605199961923,[-0.3101851851851852],[0.05740740740740741],[1],[0],[0],[1.2845193999819458],['target'],1,001,2024-10-09_13h56.29.694,Vision search,2024.1.5,None,2024-10-09 13h57.12.427129 +0530,
2,0,2,0,2.9911392999929376,,2.964587699971162,10,2.9911392999929376,2.9911392999929376,0.019070899987127632,3.993941899971105,4.211818599957041,[-0.43703703703703706],[0.2222222222222222],[1],[0],[0],[1.2283935999730602],['target'],1,001,2024-10-09_13h56.29.694,Vision search,2024.1.5,None,2024-10-09 13h57.12.427129 +0530,
3,0,3,0,4.239337999955751,,4.214373999973759,10,4.239337999955751,4.239337999955751,0.01773749996209517,5.2432477999827825,5.928459399961866,[-0.09907407407407408],[-0.1037037037037037],[1],[0],[0],[1.6963813999900594],['target'],1,001,2024-10-09_13h56.29.694,Vision search,2024.1.5,None,2024-10-09 13h57.12.427129 +0530,
4,0,4,0,5.948306899983436,,5.93198829999892,5,5.948306899983436,5.948306899983436,0.011524700035806745,6.95957179996185,7.744200099958107,[0.11203703703703703],[-0.34444444444444444],[1],[0],[0],[1.8009895999566652],['target'],1,001,2024-10-09_13h56.29.694,Vision search,2024.1.5,None,2024-10-09 13h57.12.427129 +0530,
5,0,5,0,7.766995099955238,,7.747159599966835,5,7.766995099955238,7.766995099955238,0.011808599985670298,8.776462199981324,9.028181399975438,[-0.23055555555555557],[0.175],[1],[0],[0],[1.2691203000140376],['target'],1,001,2024-10-09_13h56.29.694,Vision search,2024.1.5,None,2024-10-09 13h57.12.427129 +0530,
6,0,6,0,9.072330900002271,,9.032845699985046,10,9.072330900002271,9.072330900002271,0.027956100006122142,10.076318199979141,10.559800999995787,[-0.013888888888888888],[-0.33240740740740743],[1],[0],[0],[1.4996731000137515],['target'],1,001,2024-10-09_13h56.29.694,Vision search,2024.1.5,None,2024-10-09 13h57.12.427129 +0530,
7,0,7,0,10.580582999973558,,10.562233500008006,5,10.580582999973558,10.580582999973558,0.012717499979771674,11.592045099998359,11.776896099967416,[-0.2111111111111111],[-0.2851851851851852],[1],[0],[0],[1.2020046000252478],['target'],1,001,2024-10-09_13h56.29.694,Vision search,2024.1.5,None,2024-10-09 13h57.12.427129 +0530,
8,0,8,0,11.808006799954455,,11.780249999952503,10,11.808006799954455,11.808006799954455,0.02008180000120774,12.808520199963823,13.509850599977653,[0.3490740740740741],[0.010185185185185186],[1],[0],[0],[1.7098346999846399],['target'],1,001,2024-10-09_13h56.29.694,Vision search,2024.1.5,None,2024-10-09 13h57.12.427129 +0530,
9,0,9,0,13.531497499963734,,13.512518199975602,5,13.531497499963734,13.531497499963734,0.011562800034880638,14.542630499985535,15.227209999982733,[-0.2388888888888889],[-0.14537037037037037],[1],[0],[0],[1.7030716000008397],['target'],1,001,2024-10-09_13h56.29.694,Vision search,2024.1.5,None,2024-10-09 13h57.12.427129 +0530,
10,0,10,0,15.249629899975844,,15.231779199966695,5,15.249629899975844,15.249629899975844,0.0128944999887608,16.257783499953803,16.44384199997876,[0.04259259259259259],[-0.30185185185185187],[1],[0],[0],[1.1994638999458402],['target'],1,001,2024-10-09_13h56.29.694,Vision search,2024.1.5,None,2024-10-09 13h57.12.427129 +0530,
11,0,11,0,16.477935099974275,,16.448678499960806,10,16.477935099974275,16.477935099974275,0.0215885000070557,17.490751899953466,18.058604999969248,[-0.27685185185185185],[-0.3],[1],[0],[0],[1.5888988000224344],['target'],1,001,2024-10-09_13h56.29.694,Vision search,2024.1.5,None,2024-10-09 13h57.12.427129 +0530,
12,0,12,0,18.07795740000438,,18.06171350000659,5,18.07795740000438,18.07795740000438,0.011343599995598197,19.09039169998141,19.726304499956314,[-0.3648148148148148],[-0.11851851851851852],[1],[0],[0],[1.6531631000107154],['target'],1,001,2024-10-09_13h56.29.694,Vision search,2024.1.5,None,2024-10-09 13h57.12.427129 +0530,
13,0,13,0,19.754675699979998,,19.731196799955796,5,19.754675699979998,19.754675699979998,0.015884799999184906,20.757372799969744,21.64168899995275,[0.17222222222222222],[0.022222222222222223],[1],[0],[0],[1.8949035999830812],['target'],1,001,2024-10-09_13h56.29.694,Vision search,2024.1.5,None,2024-10-09 13h57.12.427129 +0530,
14,0,14,0,21.687399599992204,,21.64665069995681,10,21.687399599992204,21.687399599992204,0.02946039999369532,22.68974539998453,23.890515899984166,[-0.24444444444444444],[0.33240740740740743],[1],[0],[0],[2.2151827999623492],['target'],1,001,2024-10-09_13h56.29.694,Vision search,2024.1.5,None,2024-10-09 13h57.12.427129 +0530,
15,0,15,0,23.910094199993182,,23.893174799974076,5,23.910094199993182,23.910094199993182,0.009787100018002093,24.92243769997731,25.27397259999998,[0.020370370370370372],[0.31296296296296294],[1],[0],[0],[1.3710442999727093],['target'],1,001,2024-10-09_13h56.29.694,Vision search,2024.1.5,None,2024-10-09 13h57.12.427129 +0530,
16,0,16,0,25.293048599967733,,25.277328399999533,5,25.293048599967733,25.293048599967733,0.010573300009127706,26.305714299960528,26.67349600000307,[-0.06481481481481481],[-0.2833333333333333],[1],[0],[0],[1.3859077999950387],['target'],1,001,2024-10-09_13h56.29.694,Vision search,2024.1.5,None,2024-10-09 13h57.12.427129 +0530,
17,0,17,0,26.696054000000004,,26.67636369995307,5,26.696054000000004,26.696054000000004,0.01174480002373457,27.705519999959506,28.00759269995615,[-0.11481481481481481],[-0.06481481481481481],[1],[0],[0],[1.3194629999925382],['target'],1,001,2024-10-09_13h56.29.694,Vision search,2024.1.5,None,2024-10-09 13h57.12.427129 +0530,
18,0,18,0,28.031641599955037,,28.012263699958567,5,28.031641599955037,28.031641599955037,0.012908099975902587,29.038411599991377,29.239585799979977,[-0.30833333333333335],[0.30648148148148147],[1],[0],[0],[1.2147924000164494],['target'],1,001,2024-10-09_13h56.29.694,Vision search,2024.1.5,None,2024-10-09 13h57.12.427129 +0530,
19,0,19,0,29.276844099978916,,29.243360699969344,10,29.276844099978916,29.276844099978916,0.025354099983815104,30.28827849996742,32.30641839996679,[0.42592592592592593],[0.3509259259259259],[1],[0],[0],[3.0379727000254206],['target'],1,001,2024-10-09_13h56.29.694,Vision search,2024.1.5,None,2024-10-09 13h57.12.427129 +0530,
20,0,20,0,32.338868199964054,,32.31081609998364,10,32.338868199964054,32.338868199964054,0.02024030004395172,33.35393359995214,35.35593759996118,[0.39351851851851855],[0.04537037037037037],[1],[0],[0],[3.0251555000431836],['target'],1,001,2024-10-09_13h56.29.694,Vision search,2024.1.5,None,2024-10-09 13h57.12.427129 +0530,
21,0,21,0,35.388356899959035,,35.35969859996112,10,35.388356899959035,35.388356899959035,0.020522100036032498,36.40338909998536,36.70456209999975,[0.40925925925925927],[0.13796296296296295],[1],[0],[0],[1.3247855000081472],['target'],1,001,2024-10-09_13h56.29.694,Vision search,2024.1.5,None,2024-10-09 13h57.12.427129 +0530,
22,0,22,0,36.73442219995195,,36.70704489998752,10,36.73442219995195,36.73442219995195,0.01913179998518899,37.73656439996557,38.40491129999282,[0.08518518518518518],[0.09907407407407408],[1],[0],[0],[1.6787744999746792],['target'],1,001,2024-10-09_13h56.29.694,Vision search,2024.1.5,None,2024-10-09 13h57.12.427129 +0530,
23,0,23,0,38.43779110000469,,38.40816339995945,10,38.43779110000469,38.43779110000469,0.02108330000191927,39.4530139999697,39.73804319999181,[0.17222222222222222],[0.2064814814814815],[1],[0],[0],[1.3088102000183426],['target'],1,001,2024-10-09_13h56.29.694,Vision search,2024.1.5,None,2024-10-09 13h57.12.427129 +0530,
24,0,24,0,39.77905319997808,,39.74127589998534,10,39.77905319997808,39.77905319997808,0.02906919998349622,40.785705299989786,42.47017009998672,[0.4009259259259259],[-0.2851851851851852],[1],[0],[0],[2.70013170002494],['target'],1,001,2024-10-09_13h56.29.694,Vision search,2024.1.5,None,2024-10-09 13h57.12.427129 +0530,
25,0,25,0,42.48812049999833,,42.4728683999856,5,42.48812049999833,42.48812049999833,0.0097179000149481,43.50206759996945,44.136904799961485,[-0.17407407407407408],[0.2833333333333333],[1],[0],[0],[1.6542873000144027],['target'],1,001,2024-10-09_13h56.29.694,Vision search,2024.1.5,None,2024-10-09 13h57.12.427129 +0530,
26,0,26,0,44.15971989999525,,44.14081869996153,5,44.15971989999525,44.15971989999525,0.011815499980002642,45.16834889998427,45.55318409996107,[0.40925925925925927],[0.07777777777777778],[1],[0],[0],[1.40086870000232],['target'],1,001,2024-10-09_13h56.29.694,Vision search,2024.1.5,None,2024-10-09 13h57.12.427129 +0530,
27,0,27,0,45.590478600002825,,45.557081200007815,10,45.590478600002825,45.590478600002825,0.020717499952297658,46.601330299978144,48.2366522999946,[0.23981481481481481],[-0.4388888888888889],[1],[0],[0],[2.658866500016302],['target'],1,001,2024-10-09_13h56.29.694,Vision search,2024.1.5,None,2024-10-09 13h57.12.427129 +0530,
28,0,28,0,48.26620859996183,,48.24185859999852,5,48.26620859996183,48.26620859996183,0.01726090000011027,49.26727690000553,49.53708109998843,[-0.09722222222222222],[0.1925925925925926],[1],[0],[0],[1.2769237000029534],['target'],1,001,2024-10-09_13h56.29.694,Vision search,2024.1.5,None,2024-10-09 13h57.12.427129 +0530,
29,0,29,0,49.572858900006395,,49.541241300001275,10,49.572858900006395,49.572858900006395,0.02316360000986606,50.583672199980356,51.185098099987954,[-0.337037037037037],[-0.0787037037037037],[1],[0],[0],[1.6209478999953717],['target'],1,001,2024-10-09_13h56.29.694,Vision search,2024.1.5,None,2024-10-09 13h57.12.427129 +0530,
30,0,30,0,51.22905989998253,,51.188999499951024,10,51.22905989998253,51.22905989998253,0.03098789998330176,52.23349579999922,53.717725900001824,[0.4861111111111111],[-0.4546296296296296],[1],[0],[0],[2.498063799983356],['target'],1,001,2024-10-09_13h56.29.694,Vision search,2024.1.5,None,2024-10-09 13h57.12.427129 +0530,
31,0,31,0,53.73748059995705,,53.72099939995678,5,53.73748059995705,53.73748059995705,0.011234600038733333,54.749846899998374,55.33438389998628,[-0.24722222222222223],[0.33796296296296297],[1],[0],[0],[1.6023796999943443],['target'],1,001,2024-10-09_13h56.29.694,Vision search,2024.1.5,None,2024-10-09 13h57.12.427129 +0530,
32,0,32,0,55.36995089997072,,55.33729419996962,10,55.36995089997072,55.36995089997072,0.024231099989265203,56.382517499965616,57.36744209995959,[0.046296296296296294],[-0.39537037037037037],[1],[0],[0],[2.006043099972885],['target'],1,001,2024-10-09_13h56.29.694,Vision search,2024.1.5,None,2024-10-09 13h57.12.427129 +0530,
33,0,33,0,57.39644829998724,,57.371404199977405,5,57.39644829998724,57.39644829998724,0.017068699991796166,58.398877599975094,59.000340799975675,[-0.10092592592592593],[-0.09537037037037037],[1],[0],[0],[1.6123427000129595],['target'],1,001,2024-10-09_13h56.29.694,Vision search,2024.1.5,None,2024-10-09 13h57.12.427129 +0530,
34,0,34,0,59.0249926999677,,59.00439119996736,5,59.0249926999677,59.0249926999677,0.013532199955079705,60.031888099969365,60.599626899987925,[0.09259259259259259],[0.19907407407407407],[1],[0],[0],[1.5818824999732897],['target'],1,001,2024-10-09_13h56.29.694,Vision search,2024.1.5,None,2024-10-09 13h57.12.427129 +0530,
35,0,35,0,60.6171267000027,,60.60191169998143,5,60.6171267000027,60.6171267000027,0.009360299969557673,61.63126769999508,62.39931499998784,[-0.4537037037037037],[0.34814814814814815],[1],[0],[0],[1.7881560999667272],['target'],1,001,2024-10-09_13h56.29.694,Vision search,2024.1.5,None,2024-10-09 13h57.12.427129 +0530,
36,0,36,0,62.4180116999778,,62.40235259995097,5,62.4180116999778,62.4180116999778,0.010241599986329675,63.43093889998272,63.80087330000242,[-0.125],[0.08333333333333333],[1],[0],[0],[1.3878888000035658],['target'],1,001,2024-10-09_13h56.29.694,Vision search,2024.1.5,None,2024-10-09 13h57.12.427129 +0530,
37,0,37,0,63.825388099998236,,63.805513500003144,5,63.825388099998236,63.825388099998236,0.01482510002097115,64.83080009999685,65.43274809996365,[-0.06296296296296296],[0.2712962962962963],[1],[0],[0],[1.6128027999657206],['target'],1,001,2024-10-09_13h56.29.694,Vision search,2024.1.5,None,2024-10-09 13h57.12.427129 +0530,
38,0,38,0,65.45354349998524,,65.43670179997571,5,65.45354349998524,65.45354349998524,0.011988800019025803,66.46388259995729,67.01611480000429,[-0.3861111111111111],[-0.026851851851851852],[1],[0],[0],[1.5675075000035577],['target'],1,001,2024-10-09_13h56.29.694,Vision search,2024.1.5,None,2024-10-09 13h57.12.427129 +0530,
39,0,39,0,67.06323729996802,,67.02067830000306,10,67.06323729996802,67.06323729996802,0.030156099994201213,68.06346829998074,68.44785459997365,[-0.040740740740740744],[0.06296296296296296],[1],[0],[0],[1.3975599000114016],['target'],1,001,2024-10-09_13h56.29.694,Vision search,2024.1.5,None,2024-10-09 13h57.12.427129 +0530,
40,0,40,0,68.46646450000117,,68.45020929997554,5,68.46646450000117,68.46646450000117,0.010279999987687916,69.47995259996969,70.36454869998852,[-0.1824074074074074],[-0.13148148148148148],[1],[0],[0],[1.9042101999511942],['target'],1,001,2024-10-09_13h56.29.694,Vision search,2024.1.5,None,2024-10-09 13h57.12.427129 +0530,
41,0,41,0,70.3868264000048,,70.3674562999513,5,70.3868264000048,70.3868264000048,0.013909600034821779,71.39601669996046,72.1641281999764,[-0.2722222222222222],[0.18055555555555555],[1],[0],[0],[1.7828388000489213],['target'],1,001,2024-10-09_13h56.29.694,Vision search,2024.1.5,None,2024-10-09 13h57.12.427129 +0530,
42,0,42,0,72.1877475999645,,72.1682615999598,5,72.1877475999645,72.1877475999645,0.013539700012188405,73.195578999992,73.81429059995571,[0.22870370370370371],[-0.2777777777777778],[1],[0],[0],[1.6326118999859318],['target'],1,001,2024-10-09_13h56.29.694,Vision search,2024.1.5,None,2024-10-09 13h57.12.427129 +0530,
43,0,43,0,73.83619289996568,,73.81865499995183,5,73.83619289996568,73.83619289996568,0.01254329999210313,74.84524469997268,75.19660619995557,[0.13796296296296295],[-0.27685185185185185],[1],[0],[0],[1.3658279000082985],['target'],1,001,2024-10-09_13h56.29.694,Vision search,2024.1.5,None,2024-10-09 13h57.12.427129 +0530,
44,0,44,0,75.23090949998004,,75.20062949997373,10,75.23090949998004,75.23090949998004,0.022030899999663234,76.24579319998156,76.99595469998894,[0.45185185185185184],[-0.16111111111111112],[1],[0],[0],[1.7737107999855652],['target'],1,001,2024-10-09_13h56.29.694,Vision search,2024.1.5,None,2024-10-09 13h57.12.427129 +0530,
45,0,45,0,77.01456049998524,,76.9984835999785,5,77.01456049998524,77.01456049998524,0.010062000015750527,78.02801449998515,78.81226489995606,[-0.412962962962963],[-0.3537037037037037],[1],[0],[0],[1.8039005000027828],['target'],1,001,2024-10-09_13h56.29.694,Vision search,2024.1.5,None,2024-10-09 13h57.12.427129 +0530,
46,0,46,0,78.84581749996869,,78.8153364000027,10,78.84581749996869,78.84581749996869,0.022618999995756894,79.86086309998063,80.44497549999505,[-0.16666666666666666],[-0.3277777777777778],[1],[0],[0],[1.6078309000004083],['target'],1,001,2024-10-09_13h56.29.694,Vision search,2024.1.5,None,2024-10-09 13h57.12.427129 +0530,
47,0,47,0,80.46567629999481,,80.44824559998233,5,80.46567629999481,80.46567629999481,0.011873200011905283,81.47759460000088,82.22846989997197,[-0.3824074074074074],[0.28425925925925927],[1],[0],[0],[1.7686840000096709],['target'],1,001,2024-10-09_13h56.29.694,Vision search,2024.1.5,None,2024-10-09 13h57.12.427129 +0530,
48,0,48,0,82.25859109999146,,82.23138899996411,10,82.25859109999146,82.25859109999146,0.01900279999244958,83.26012130000163,84.32771209999919,[0.12407407407407407],[-0.46296296296296297],[1],[0],[0],[2.0775596000021324],['target'],1,001,2024-10-09_13h56.29.694,Vision search,2024.1.5,None,2024-10-09 13h57.12.427129 +0530,
49,0,49,0,84.34706169995479,,84.33060609997483,5,84.34706169995479,84.34706169995479,0.00986300001386553,85.35966099996585,86.01134549995186,[0.1425925925925926],[0.4212962962962963],[1],[0],[0],[1.6707861999748275],['target'],1,001,2024-10-09_13h56.29.694,Vision search,2024.1.5,None,2024-10-09 13h57.12.427129 +0530,
50,0,50,0,86.04275159997633,,86.01514619996306,10,86.04275159997633,86.04275159997633,0.02007849997607991,87.04272149997996,87.96139839995885,[-0.3138888888888889],[0.21296296296296297],[1],[0],[0],[1.9259184999973513],['target'],1,001,2024-10-09_13h56.29.694,Vision search,2024.1.5,None,2024-10-09 13h57.12.427129 +0530,
51,0,51,0,87.99148639995838,,87.96655279997503,5,87.99148639995838,87.99148639995838,0.017297099984716624,88.99239599995781,90.34366999997292,[-0.48148148148148145],[-0.09722222222222222],[1],[0],[0],[2.36031679995358],['target'],1,001,2024-10-09_13h56.29.694,Vision search,2024.1.5,None,2024-10-09 13h57.12.427129 +0530,
52,0,52,0,90.36602809996111,,90.34803229995305,5,90.36602809996111,90.36602809996111,0.012339700013399124,91.37513199995738,92.32676559995161,[-0.008333333333333333],[0.2212962962962963],[1],[0],[0],[1.9665784999961033],['target'],1,001,2024-10-09_13h56.29.694,Vision search,2024.1.5,None,2024-10-09 13h57.12.427129 +0530,
53,0,53,0,92.36938119999832,,92.33063759998186,10,92.36938119999832,92.36938119999832,0.03044990001944825,93.37477559997933,93.84243459999561,[-0.03981481481481482],[0.2388888888888889],[1],[0],[0],[1.4818710000254214],['target'],1,001,2024-10-09_13h56.29.694,Vision search,2024.1.5,None,2024-10-09 13h57.12.427129 +0530,
54,0,54,0,93.86248529999284,,93.84542829997372,5,93.86248529999284,93.86248529999284,0.011456700041890144,94.87450429995079,95.69254499999806,[0.4935185185185185],[-0.14907407407407408],[1],[0],[0],[1.8356380999903195],['target'],1,001,2024-10-09_13h56.29.694,Vision search,2024.1.5,None,2024-10-09 13h57.12.427129 +0530,
55,0,55,0,95.72480799996993,,95.6971910999855,10,95.72480799996993,95.72480799996993,0.020636799978092313,96.72413399996003,97.47475719999056,[0.3287037037037037],[0.11851851851851852],[1],[0],[0],[1.7581193000078201],['target'],1,001,2024-10-09_13h56.29.694,Vision search,2024.1.5,None,2024-10-09 13h57.12.427129 +0530,
56,0,56,0,97.50641909998376,,97.47705519996816,10,97.50641909998376,97.50641909998376,0.018005599966272712,98.50693469995167,99.40859409997938,[-0.3509259259259259],[-0.31851851851851853],[1],[0],[0],[1.9135405999841169],['target'],1,001,2024-10-09_13h56.29.694,Vision search,2024.1.5,None,2024-10-09 13h57.12.427129 +0530,
57,0,57,0,99.44169609999517,,99.41234139999142,10,99.44169609999517,99.44169609999517,0.021008400013670325,100.45663659996353,100.67449569999008,[-0.21481481481481482],[-0.4009259259259259],[1],[0],[0],[1.2415465000085533],['target'],1,001,2024-10-09_13h56.29.694,Vision search,2024.1.5,None,2024-10-09 13h57.12.427129 +0530,
58,0,58,0,100.69357119995402,,100.67772459995467,5,100.69357119995402,100.69357119995402,0.010397700010798872,101.70667089999188,102.50755579996621,[0.23981481481481481],[0.046296296296296294],[1],[0],[0],[1.8196808999637142],['target'],1,001,2024-10-09_13h56.29.694,Vision search,2024.1.5,None,2024-10-09 13h57.12.427129 +0530,
59,0,59,0,102.53701609995915,,102.51056289998814,10,102.53701609995915,102.53701609995915,0.018647999968379736,103.53914039995288,105.13992779998807,[0.2657407407407407],[-0.4361111111111111],[1],[0],[0],[2.6108808999997564],['target'],1,001,2024-10-09_13h56.29.694,Vision search,2024.1.5,None,2024-10-09 13h57.12.427129 +0530,
60,0,60,0,105.1698647000012,,105.14312359999167,10,105.1698647000012,105.1698647000012,0.0190017000422813,106.1718384999549,107.106733899971,[0.10648148148148148],[0.23333333333333334],[1],[0],[0],[1.9448528999928385],['target'],1,001,2024-10-09_13h56.29.694,Vision search,2024.1.5,None,2024-10-09 13h57.12.427129 +0530,
61,0,61,0,107.13938219996635,,107.11048450000817,10,107.13938219996635,107.13938219996635,0.02142519998596981,108.1381450999761,108.87348299997393,[0.34444444444444444],[0.1388888888888889],[1],[0],[0],[1.7419665000052191],['target'],1,001,2024-10-09_13h56.29.694,Vision search,2024.1.5,None,2024-10-09 13h57.12.427129 +0530,
62,0,62,0,108.91989069996634,,108.87716390000423,10,108.91989069996634,108.91989069996634,0.02918299997691065,109.92111659998773,110.28954659996089,[0.3537037037037037],[0.001851851851851852],[1],[0],[0],[1.3833925999933854],['target'],1,001,2024-10-09_13h56.29.694,Vision search,2024.1.5,None,2024-10-09 13h57.12.427129 +0530,
63,0,63,0,110.31941019999795,,110.29399609996472,5,110.31941019999795,110.31941019999795,0.019830600009299815,111.32080719998339,112.6387676000013,[-0.31851851851851853],[0.05740740740740741],[1],[0],[0],[2.3253855000366457],['target'],1,001,2024-10-09_13h56.29.694,Vision search,2024.1.5,None,2024-10-09 13h57.12.427129 +0530,
64,0,64,0,112.67665049998323,,112.6429374999716,10,112.67665049998323,112.67665049998323,0.02381659997627139,113.68726410000818,113.98827239999082,[0.05555555555555555],[0.3731481481481482],[1],[0],[0],[1.3218544999836013],['target'],1,001,2024-10-09_13h56.29.694,Vision search,2024.1.5,None,2024-10-09 13h57.12.427129 +0530,
65,0,65,0,114.00693019997561,,113.99099719995866,5,114.00693019997561,114.00693019997561,0.01006020000204444,115.02025850000791,116.17173080000794,[0.0824074074074074],[-0.44814814814814813],[1],[0],[0],[2.1706039999844506],['target'],1,001,2024-10-09_13h56.29.694,Vision search,2024.1.5,None,2024-10-09 13h57.12.427129 +0530,
66,0,66,0,116.20655109995278,,116.17608459998155,10,116.20655109995278,116.20655109995278,0.02074120001634583,117.21983789996011,117.70425829995656,[0.30925925925925923],[-0.2916666666666667],[1],[0],[0],[1.507931899977848],['target'],1,001,2024-10-09_13h56.29.694,Vision search,2024.1.5,None,2024-10-09 13h57.12.427129 +0530,
67,0,67,0,117.73767889995361,,117.7072094999603,10,117.73767889995361,117.73767889995361,0.019085600040853024,118.73610360000748,119.12045819999184,[0.012037037037037037],[0.09537037037037037],[1],[0],[0],[1.3944206000305712],['target'],1,001,2024-10-09_13h56.29.694,Vision search,2024.1.5,None,2024-10-09 13h57.12.427129 +0530,
68,0,68,0,119.13907219999237,,119.12285329995211,5,119.13907219999237,119.13907219999237,0.009258100006263703,120.15211939997971,121.75285129999975,[-0.1935185185185185],[-0.4675925925925926],[1],[0],[0],[2.6210311999893747],['target'],1,001,2024-10-09_13h56.29.694,Vision search,2024.1.5,None,2024-10-09 13h57.12.427129 +0530,
69,0,69,0,121.77365659998031,,121.75582129997201,5,121.77365659998031,121.77365659998031,0.010910099954344332,122.7858203999931,123.8366815999616,[0.3416666666666667],[-0.32314814814814813],[1],[0],[0],[2.0701979999430478],['target'],1,001,2024-10-09_13h56.29.694,Vision search,2024.1.5,None,2024-10-09 13h57.12.427129 +0530,
70,0,70,0,123.8700533999945,,123.84005269996123,10,123.8700533999945,123.8700533999945,0.01880460005486384,124.88503720000153,125.66884339996614,[0.11851851851851852],[0.125],[1],[0],[0],[1.810347400023602],['target'],1,001,2024-10-09_13h56.29.694,Vision search,2024.1.5,None,2024-10-09 13h57.12.427129 +0530,
71,0,71,0,125.68919259996619,,125.67125660000602,5,125.68919259996619,125.68919259996619,0.010469699976965785,126.70079509995412,127.00291009998182,[0.03148148148148148],[0.14444444444444443],[1],[0],[0],[1.3210342000238597],['target'],1,001,2024-10-09_13h56.29.694,Vision search,2024.1.5,None,2024-10-09 13h57.12.427129 +0530,
72,0,72,0,127.05554359999951,,127.01092450000579,10,127.05554359999951,127.05554359999951,0.033934100007172674,128.0672232999932,129.25201669998933,[-0.18425925925925926],[0.36666666666666664],[1],[0],[0],[2.2074766000150703],['target'],1,001,2024-10-09_13h56.29.694,Vision search,2024.1.5,None,2024-10-09 13h57.12.427129 +0530,
73,0,73,0,129.309094599972,,129.25556899997173,10,129.309094599972,129.309094599972,0.040159900032449514,130.31677299999865,132.15130430000136,[0.2833333333333333],[0.4722222222222222],[1],[0],[0],[2.8559915999649093],['target'],1,001,2024-10-09_13h56.29.694,Vision search,2024.1.5,None,2024-10-09 13h57.12.427129 +0530,
74,0,74,0,132.17123340000398,,132.15361269999994,5,132.17123340000398,132.17123340000398,0.009426400007214397,133.18295789998956,134.23413040000014,[0.5009259259259259],[-0.4324074074074074],[1],[0],[0],[2.071165299974382],['target'],1,001,2024-10-09_13h56.29.694,Vision search,2024.1.5,None,2024-10-09 13h57.12.427129 +0530,
75,0,75,0,134.25765980000142,,134.23706919996766,5,134.25765980000142,134.25765980000142,0.011704200005624443,135.266064299969,136.05030989996158,[0.36203703703703705],[-0.3925925925925926],[1],[0],[0],[1.8019928999710828],['target'],1,001,2024-10-09_13h56.29.694,Vision search,2024.1.5,None,2024-10-09 13h57.12.427129 +0530,
76,0,76,0,136.06773059995612,,136.05223129998194,5,136.06773059995612,136.06773059995612,0.008393800002522767,137.08211630000733,137.88351839996176,[-0.044444444444444446],[0.4111111111111111],[1],[0],[0],[1.8228401999804191],['target'],1,001,2024-10-09_13h56.29.694,Vision search,2024.1.5,None,2024-10-09 13h57.12.427129 +0530,
77,0,77,0,137.9046926999581,,137.8867714999942,5,137.9046926999581,137.9046926999581,0.010802000004332513,138.9157415999798,139.56617299997015,[-0.33055555555555555],[0.4185185185185185],[1],[0],[0],[1.6687738000182435],['target'],1,001,2024-10-09_13h56.29.694,Vision search,2024.1.5,None,2024-10-09 13h57.12.427129 +0530,
78,0,78,0,139.5997953999904,,139.56941999995615,10,139.5997953999904,139.5997953999904,0.018913100007921457,140.61466089996975,141.13292800000636,[-0.275],[-0.31851851851851853],[1],[0],[0],[1.544405900000129],['target'],1,001,2024-10-09_13h56.29.694,Vision search,2024.1.5,None,2024-10-09 13h57.12.427129 +0530,
79,0,79,0,141.1604508999735,,141.13766589999432,5,141.1604508999735,141.1604508999735,0.016743100015446544,142.16432409995468,142.78201019996777,[-0.12222222222222222],[-0.3907407407407407],[1],[0],[0],[1.628234900010284],['target'],1,001,2024-10-09_13h56.29.694,Vision search,2024.1.5,None,2024-10-09 13h57.12.427129 +0530,
80,0,80,0,142.8170765999821,,142.78486199997133,10,142.8170765999821,142.8170765999821,0.02050959999905899,143.83094729995355,144.03194369998528,[-0.11203703703703703],[-0.412962962962963],[1],[0],[0],[1.2268287999904715],['target'],1,001,2024-10-09_13h56.29.694,Vision search,2024.1.5,None,2024-10-09 13h57.12.427129 +0530,
81,0,81,0,144.07972619996872,,144.03547929995693,10,144.07972619996872,144.07972619996872,0.030653599998913705,145.08076230000006,146.6145618999726,[-0.3314814814814815],[-0.3962962962962963],[1],[0],[0],[2.5488161999965087],['target'],1,001,2024-10-09_13h56.29.694,Vision search,2024.1.5,None,2024-10-09 13h57.12.427129 +0530,
82,0,82,0,146.6457019999507,,146.61736869998276,10,146.6457019999507,146.6457019999507,0.018305499979760498,147.64656359999208,148.81409469997743,[-0.11018518518518519],[0.15648148148148147],[1],[0],[0],[2.178640300000552],['target'],1,001,2024-10-09_13h56.29.694,Vision search,2024.1.5,None,2024-10-09 13h57.12.427129 +0530,
83,0,83,0,148.8351366999559,,148.81697729998268,5,148.8351366999559,148.8351366999559,0.010535100009292364,149.84598939999705,150.8827142000082,[0.44074074074074077],[-0.2564814814814815],[1],[0],[0],[2.0547172999940813],['target'],1,001,2024-10-09_13h56.29.694,Vision search,2024.1.5,None,2024-10-09 13h57.12.427129 +0530,
84,0,84,0,150.91476949997013,,150.88744199997745,5,150.91476949997013,150.91476949997013,0.018237299984320998,151.92887780000456,152.69724329997553,[0.2212962962962963],[0.36944444444444446],[1],[0],[0],[1.7919831000035629],['target'],1,001,2024-10-09_13h56.29.694,Vision search,2024.1.5,None,2024-10-09 13h57.12.427129 +0530,
85,0,85,0,152.73547849996248,,152.7011345999781,10,152.73547849996248,152.73547849996248,0.02090230002067983,153.74519019998843,154.31301709997933,[0.12685185185185185],[-0.04259259259259259],[1],[0],[0],[1.591300299973227],['target'],1,001,2024-10-09_13h56.29.694,Vision search,2024.1.5,None,2024-10-09 13h57.12.427129 +0530,
86,0,86,0,154.33447429997614,,154.31592199997976,5,154.33447429997614,154.33447429997614,0.01047949999338016,155.3446940999711,155.9962502999697,[0.23703703703703705],[-0.225],[1],[0],[0],[1.6699227999779396],['target'],1,001,2024-10-09_13h56.29.694,Vision search,2024.1.5,None,2024-10-09 13h57.12.427129 +0530,
87,0,87,0,156.03818829997908,,156.000160399999,10,156.03818829997908,156.03818829997908,0.02590149996103719,157.0445337999845,157.69564170000376,[-0.14907407407407408],[0.412962962962963],[1],[0],[0],[1.6699993000365794],['target'],1,001,2024-10-09_13h56.29.694,Vision search,2024.1.5,None,2024-10-09 13h57.12.427129 +0530,
88,0,88,0,157.7273818999529,,157.6982893999666,10,157.7273818999529,157.7273818999529,0.018192200048360974,158.7274353999528,159.7785908000078,[0.14074074074074075],[-0.45],[1],[0],[0],[2.062272100010887],['target'],1,001,2024-10-09_13h56.29.694,Vision search,2024.1.5,None,2024-10-09 13h57.12.427129 +0530,
89,0,89,0,159.7970762999612,,159.78140300000086,5,159.7970762999612,159.7970762999612,0.008922400011215359,160.81067949999124,161.89600039995275,[0.1675925925925926],[0.3398148148148148],[1],[0],[0],[2.105599600006826],['target'],1,001,2024-10-09_13h56.29.694,Vision search,2024.1.5,None,2024-10-09 13h57.12.427129 +0530,
90,0,90,0,161.94309819996124,,161.90057679999154,10,161.94309819996124,161.94309819996124,0.028002800012473017,162.94321219995618,163.77891749999253,[-0.13796296296296295],[-0.13518518518518519],[1],[0],[0],[1.8504523999872617],['target'],1,001,2024-10-09_13h56.29.694,Vision search,2024.1.5,None,2024-10-09 13h57.12.427129 +0530,
91,0,91,0,163.8305199999595,,163.7845766999526,10,163.8305199999595,163.8305199999595,0.03136589995119721,164.84294259996386,166.14524029998574,[0.4046296296296296],[-0.2537037037037037],[1],[0],[0],[2.3292911000316963],['target'],1,001,2024-10-09_13h56.29.694,Vision search,2024.1.5,None,2024-10-09 13h57.12.427129 +0530,
92,0,92,0,166.18268389999866,,166.15007949998835,10,166.18268389999866,166.18268389999866,0.023217400012072176,167.19253649999155,167.6109962000046,[-0.016666666666666666],[-0.25092592592592594],[1],[0],[0],[1.4380497999954969],['target'],1,001,2024-10-09_13h56.29.694,Vision search,2024.1.5,None,2024-10-09 13h57.12.427129 +0530,
93,0,93,0,167.63035729998956,,167.61359799996717,5,167.63035729998956,167.63035729998956,0.009690599981695414,168.64223199995467,169.29360189998988,[0.4722222222222222],[-0.11481481481481481],[1],[0],[0],[1.670224600005895],['target'],1,001,2024-10-09_13h56.29.694,Vision search,2024.1.5,None,2024-10-09 13h57.12.427129 +0530,
94,0,94,0,169.32513869996183,,169.29619749996345,10,169.32513869996183,169.32513869996183,0.018162399996072054,170.32498029997805,173.40976489998866,[-0.3712962962962963],[-0.40555555555555556],[1],[0],[0],[4.095404700026847],['target'],1,001,2024-10-09_13h56.29.694,Vision search,2024.1.5,None,2024-10-09 13h57.12.427129 +0530,
95,0,95,0,173.45490259997314,,173.41355070000282,10,173.45490259997314,173.45490259997314,0.025570300000254065,174.45765830000164,176.17551249999087,[0.17777777777777778],[0.25555555555555554],[1],[0],[0],[2.7368352999910712],['target'],1,001,2024-10-09_13h56.29.694,Vision search,2024.1.5,None,2024-10-09 13h57.12.427129 +0530,
96,0,96,0,176.2018804999534,,176.17869819997577,5,176.2018804999534,176.2018804999534,0.014335000014398247,177.20713979995344,179.19192749995273,[-0.05925925925925926],[0.2064814814814815],[1],[0],[0],[2.9989651000360027],['target'],1,001,2024-10-09_13h56.29.694,Vision search,2024.1.5,None,2024-10-09 13h57.12.427129 +0530,
97,0,97,0,179.2145762,,179.19548940000823,5,179.2145762,179.2145762,0.011391199950594455,180.2230763999978,180.97409199998947,[-0.2564814814814815],[-0.4185185185185185],[1],[0],[0],[1.767517999978736],['target'],1,001,2024-10-09_13h56.29.694,Vision search,2024.1.5,None,2024-10-09 13h57.12.427129 +0530,
98,0,98,0,181.0052438999992,,180.97680689999834,10,181.0052438999992,181.0052438999992,0.018870100029744208,182.00598489999538,182.59127699997043,[0.3296296296296296],[-0.058333333333333334],[1],[0],[0],[1.5953847999917343],['target'],1,001,2024-10-09_13h56.29.694,Vision search,2024.1.5,None,2024-10-09 13h57.12.427129 +0530,
99,0,99,0,182.61704799998552,,182.59618519997457,5,182.61704799998552,182.61704799998552,0.014085399976465851,183.62245759996586,184.7568559999927,[-0.3490740740740741],[-0.2777777777777778],[1],[0],[0],[2.147173000033945],['target'],1,001,2024-10-09_13h56.29.694,Vision search,2024.1.5,None,2024-10-09 13h57.12.427129 +0530,
100,0,100,0,184.7903436999768,,184.75991729996167,10,184.7903436999768,184.7903436999768,0.019445699988864362,185.8058625999838,187.0897430999903,[-0.13148148148148148],[-0.38333333333333336],[1],[0],[0],[2.310379699978512],['target'],1,001,2024-10-09_13h56.29.694,Vision search,2024.1.5,None,2024-10-09 13h57.12.427129 +0530,
101,0,101,0,187.1248695999966,,187.09346319996985,10,187.1248695999966,187.1248695999966,0.02147440001135692,188.13790979998885,188.2558030000073,[-0.10555555555555556],[-0.3888888888888889],[1],[0],[0],[1.1411957999807782],['target'],1,001,2024-10-09_13h56.29.694,Vision search,2024.1.5,None,2024-10-09 13h57.12.427129 +0530,
102,0,102,0,188.29397219995735,,188.25915509997867,10,188.29397219995735,188.29397219995735,0.021495699998922646,189.30479619995458,190.12178799998946,[-0.2712962962962963],[-0.4148148148148148],[1],[0],[0],[1.8414859000477009],['target'],1,001,2024-10-09_13h56.29.694,Vision search,2024.1.5,None,2024-10-09 13h57.12.427129 +0530,
103,0,103,0,190.14138079999248,,190.12471689999802,5,190.14138079999248,190.14138079999248,0.00904219999210909,191.15457339998102,191.65617629996268,[0.04351851851851852],[-0.32685185185185184],[1],[0],[0],[1.522366699995473],['target'],1,001,2024-10-09_13h56.29.694,Vision search,2024.1.5,None,2024-10-09 13h57.12.427129 +0530,
104,0,104,0,191.68404169997666,,191.6603129999712,5,191.68404169997666,191.68404169997666,0.015658300020731986,192.68721060000826,192.98868179996498,[0.30185185185185187],[-0.2462962962962963],[1],[0],[0],[1.3130402999813668],['target'],1,001,2024-10-09_13h56.29.694,Vision search,2024.1.5,None,2024-10-09 13h57.12.427129 +0530,
105,0,105,0,193.01170559995808,,192.99290189996827,5,193.01170559995808,193.01170559995808,0.01232699997490272,194.0204377999762,194.85451489995467,[-0.05462962962962963],[-0.3962962962962963],[1],[0],[0],[1.8497275999980047],['target'],1,001,2024-10-09_13h56.29.694,Vision search,2024.1.5,None,2024-10-09 13h57.12.427129 +0530,
106,0,106,0,194.8753608999541,,194.85762399999658,5,194.8753608999541,194.8753608999541,0.010411499999463558,195.88643889996456,196.38811499997973,[0.49722222222222223],[0.2064814814814815],[1],[0],[0],[1.51995430001989],['target'],1,001,2024-10-09_13h56.29.694,Vision search,2024.1.5,None,2024-10-09 13h57.12.427129 +0530,
107,0,107,0,196.41226779995486,,196.39263419999043,5,196.41226779995486,196.41226779995486,0.013203900016378611,197.41927819995908,198.03729559999192,[0.1388888888888889],[0.4],[1],[0],[0],[1.6318792999954894],['target'],1,001,2024-10-09_13h56.29.694,Vision search,2024.1.5,None,2024-10-09 13h57.12.427129 +0530,
108,0,108,0,198.0795960999676,,198.04121729999315,10,198.0795960999676,198.0795960999676,0.024577200005296618,199.08568530000048,199.9032877999707,[0.15648148148148147],[-0.28703703703703703],[1],[0],[0],[1.837896200013347],['target'],1,001,2024-10-09_13h56.29.694,Vision search,2024.1.5,None,2024-10-09 13h57.12.427129 +0530,
109,0,109,0,199.92391630000202,,199.90648710000096,5,199.92391630000202,199.92391630000202,0.0112496999790892,200.935161100002,201.90336719999323,[-0.18796296296296297],[0.027777777777777776],[1],[0],[0],[1.9858572999946773],['target'],1,001,2024-10-09_13h56.29.694,Vision search,2024.1.5,None,2024-10-09 13h57.12.427129 +0530,
110,0,110,0,201.93575259996578,,201.9070223000017,10,201.93575259996578,201.93575259996578,0.018421399989165366,202.93473559996346,203.33623169997009,[0.08611111111111111],[-0.08981481481481482],[1],[0],[0],[1.41098869999405],['target'],1,001,2024-10-09_13h56.29.694,Vision search,2024.1.5,None,2024-10-09 13h57.12.427129 +0530,
111,0,111,0,203.37155509996228,,203.34023549995618,10,203.37155509996228,203.37155509996228,0.02088010002626106,204.3844605999766,206.08538519998547,[-0.4],[-0.44537037037037036],[1],[0],[0],[2.7247529000160284],['target'],1,001,2024-10-09_13h56.29.694,Vision search,2024.1.5,None,2024-10-09 13h57.12.427129 +0530,
112,0,112,0,206.11608189996332,,206.08795989997452,10,206.11608189996332,206.11608189996332,0.0176412999862805,207.11712119996082,207.73528579995036,[-0.16018518518518518],[0.3472222222222222],[1],[0],[0],[1.6296533000422642],['target'],1,001,2024-10-09_13h56.29.694,Vision search,2024.1.5,None,2024-10-09 13h57.12.427129 +0530,
113,0,113,0,207.75696109997807,,207.73918749997392,5,207.75696109997807,207.75696109997807,0.011536300007719547,208.7667403999949,209.40164150000783,[0.10277777777777777],[-0.287962962962963],[1],[0],[0],[1.6512104999856092],['target'],1,001,2024-10-09_13h56.29.694,Vision search,2024.1.5,None,2024-10-09 13h57.12.427129 +0530,
114,0,114,0,209.42709229997126,,209.40565639996203,5,209.42709229997126,209.42709229997126,0.012256100017111748,210.4332006999757,211.56862340000225,[-0.03796296296296296],[0.3527777777777778],[1],[0],[0],[2.150783200049773],['target'],1,001,2024-10-09_13h56.29.694,Vision search,2024.1.5,None,2024-10-09 13h57.12.427129 +0530,
115,0,115,0,211.6054681999958,,211.57400739996228,10,211.6054681999958,211.6054681999958,0.02177499997196719,212.61595379997743,214.45051719999174,[0.44166666666666665],[0.4148148148148148],[1],[0],[0],[2.8551454999833368],['target'],1,001,2024-10-09_13h56.29.694,Vision search,2024.1.5,None,2024-10-09 13h57.12.427129 +0530,
116,0,116,0,214.47140879998915,,214.45335639995756,5,214.47140879998915,214.47140879998915,0.01122320001013577,215.48239399999147,216.4341150999535,[-0.49166666666666664],[-0.04814814814814815],[1],[0],[0],[1.969650300045032],['target'],1,001,2024-10-09_13h56.29.694,Vision search,2024.1.5,None,2024-10-09 13h57.12.427129 +0530,
117,0,117,0,216.4753130999743,,216.4380750999553,10,216.4753130999743,216.4753130999743,0.024097800021991134,217.48151879996294,218.91573710000375,[-0.3824074074074074],[0.1814814814814815],[1],[0],[0],[2.454278199991677],['target'],1,001,2024-10-09_13h56.29.694,Vision search,2024.1.5,None,2024-10-09 13h57.12.427129 +0530,
118,0,118,0,218.9375348999747,,218.91841369995382,5,218.9375348999747,218.9375348999747,0.009862799954134971,219.94783139997162,220.11586139997235,[-0.35648148148148145],[0.027777777777777776],[1],[0],[0],[1.1876208000467159],['target'],1,001,2024-10-09_13h56.29.694,Vision search,2024.1.5,None,2024-10-09 13h57.12.427129 +0530,
119,0,119,0,220.1379621999804,,220.11936239997158,5,220.1379621999804,220.1379621999804,0.011206600000150502,221.14752509997925,222.56567280000309,[-0.16111111111111112],[-0.4583333333333333],[1],[0],[0],[2.4353314000181854],['target'],1,001,2024-10-09_13h56.29.694,Vision search,2024.1.5,None,2024-10-09 13h57.12.427129 +0530,
120,0,120,0,222.58706160000293,,222.56925539998338,5,222.58706160000293,222.58706160000293,0.011653899971861392,223.59695859998465,223.8647181999986,[-0.11296296296296296],[0.10092592592592593],[1],[0],[0],[1.2841137000359595],['target'],1,001,2024-10-09_13h56.29.694,Vision search,2024.1.5,None,2024-10-09 13h57.12.427129 +0530,
121,0,121,0,223.89822129998356,,223.86783709999872,10,223.89822129998356,223.89822129998356,0.018876800022553653,224.89654089999385,226.24799730000086,[-0.3824074074074074],[-0.25462962962962965],[1],[0],[0],[2.3613765999907628],['target'],1,001,2024-10-09_13h56.29.694,Vision search,2024.1.5,None,2024-10-09 13h57.12.427129 +0530,
122,0,122,0,226.27275219996227,,226.2524318000069,5,226.27275219996227,226.27275219996227,0.01331059995573014,227.27976679999847,227.59801879996667,[-0.29444444444444445],[-0.23148148148148148],[1],[0],[0],[1.332876699976623],['target'],1,001,2024-10-09_13h56.29.694,Vision search,2024.1.5,None,2024-10-09 13h57.12.427129 +0530,
123,0,123,0,227.63022669998463,,227.59971679997398,10,227.63022669998463,227.63022669998463,0.01774500001920387,228.6292707999819,229.79700479999883,[0.05092592592592592],[-0.4537037037037037],[1],[0],[0],[2.1795442000147887],['target'],1,001,2024-10-09_13h56.29.694,Vision search,2024.1.5,None,2024-10-09 13h57.12.427129 +0530,
124,0,124,0,229.83071099995868,,229.79993049998302,10,229.83071099995868,229.83071099995868,0.019260499975644052,230.84548649995122,231.58064659999218,[-0.2361111111111111],[-0.47129629629629627],[1],[0],[0],[1.7611848000087775],['target'],1,001,2024-10-09_13h56.29.694,Vision search,2024.1.5,None,2024-10-09 13h57.12.427129 +0530,
125,0,125,0,231.61735909996787,,231.58460899995407,10,231.61735909996787,231.61735909996787,0.022328199993353337,232.62823879998177,233.52953299996443,[0.19444444444444445],[-0.4083333333333333],[1],[0],[0],[1.9229992000036873],['target'],1,001,2024-10-09_13h56.29.694,Vision search,2024.1.5,None,2024-10-09 13h57.12.427129 +0530,
126,0,126,0,233.55007429997204,,233.53216549998615,5,233.55007429997204,233.55007429997204,0.009810200019273907,234.56158869998762,236.07904639997287,[0.020370370370370372],[-0.38333333333333336],[1],[0],[0],[2.537205600005109],['target'],1,001,2024-10-09_13h56.29.694,Vision search,2024.1.5,None,2024-10-09 13h57.12.427129 +0530,
127,0,127,0,236.12222509999992,,236.08185719995527,10,236.12222509999992,236.12222509999992,0.026644599973224103,237.12754839996342,238.8611486000009,[-0.3388888888888889],[-0.08148148148148149],[1],[0],[0],[2.7528950000414625],[],1,001,2024-10-09_13h56.29.694,Vision search,2024.1.5,None,2024-10-09 13h57.12.427129 +0530,
128,0,128,0,238.88109009998152,,238.86357379995752,5,238.88109009998152,238.88109009998152,0.009770200005732477,239.8933904999867,240.77831039996818,[0.14351851851851852],[0.30648148148148147],[1],[0],[0],[1.904980399995111],['target'],1,001,2024-10-09_13h56.29.694,Vision search,2024.1.5,None,2024-10-09 13h57.12.427129 +0530,
129,0,129,0,240.81171919999178,,240.78147139999783,10,240.81171919999178,240.81171919999178,0.019558199972379953,241.82664699997986,242.32772429997567,[0.25833333333333336],[0.1361111111111111],[1],[0],[0],[1.5270664000418037],['target'],1,001,2024-10-09_13h56.29.694,Vision search,2024.1.5,None,2024-10-09 13h57.12.427129 +0530,
130,0,130,0,242.358687800006,,242.33019000000786,10,242.358687800006,242.358687800006,0.018593699962366372,243.35934639995685,244.42693019995932,[0.5009259259259259],[-0.36666666666666664],[1],[0],[0],[2.0783189999638125],['target'],1,001,2024-10-09_13h56.29.694,Vision search,2024.1.5,None,2024-10-09 13h57.12.427129 +0530,
131,0,131,0,244.461141399981,,244.42991339997388,10,244.461141399981,244.461141399981,0.018732799973804504,245.47561329999007,246.8104922999628,[-0.09074074074074075],[-0.46296296296296297],[1],[0],[0],[2.3620009999722242],['target'],1,001,2024-10-09_13h56.29.694,Vision search,2024.1.5,None,2024-10-09 13h57.12.427129 +0530,
132,0,132,0,246.84995149995666,,246.81404529995052,10,246.84995149995666,246.84995149995666,0.022311300039291382,247.85828899999615,248.5102853999706,[-0.23703703703703705],[-0.16111111111111112],[1],[0],[0],[1.6741332999663427],['target'],1,001,2024-10-09_13h56.29.694,Vision search,2024.1.5,None,2024-10-09 13h57.12.427129 +0530,
133,0,133,0,248.5546883000061,,248.51415659999475,10,248.5546883000061,248.5546883000061,0.02670300001045689,249.55804849998094,250.6759511999553,[-0.06111111111111111],[0.4546296296296296],[1],[0],[0],[2.1354942999896593],['target'],1,001,2024-10-09_13h56.29.694,Vision search,2024.1.5,None,2024-10-09 13h57.12.427129 +0530,
134,0,134,0,250.70349270000588,,250.67892310000025,5,250.70349270000588,250.70349270000588,0.014436899975407869,251.70786789996782,252.45980809995672,[0.3972222222222222],[0.32037037037037036],[1],[0],[0],[1.7663391000241973],['target'],1,001,2024-10-09_13h56.29.694,Vision search,2024.1.5,None,2024-10-09 13h57.12.427129 +0530,
135,0,135,0,252.51088919996982,,252.46491839998635,10,252.51088919996982,252.51088919996982,0.03074470005230978,253.5244790999568,253.77564399997937,[0.25277777777777777],[-0.03981481481481482],[1],[0],[0],[1.280410600011237],['target'],1,001,2024-10-09_13h56.29.694,Vision search,2024.1.5,None,2024-10-09 13h57.12.427129 +0530,
136,0,136,0,253.8061601999798,,253.7806649999693,5,253.8061601999798,253.8061601999798,0.01622350001707673,254.80730609997408,255.48284449998755,[-0.40185185185185185],[-0.4305555555555556],[1],[0],[0],[1.6862536999979056],['target'],1,001,2024-10-09_13h56.29.694,Vision search,2024.1.5,None,2024-10-09 13h57.12.427129 +0530,
137,0,137,0,255.51434709999012,,255.48658689996228,5,255.51434709999012,255.51434709999012,0.017852899967692792,256.5234938999638,257.1083980999538,[-0.19537037037037036],[0.1398148148148148],[1],[0],[0],[1.6040348000242375],['target'],1,001,2024-10-09_13h56.29.694,Vision search,2024.1.5,None,2024-10-09 13h57.12.427129 +0530,
138,0,138,0,257.13637599995127,,257.1129096999648,5,257.13637599995127,257.13637599995127,0.015078999975230545,258.13968669995666,258.8745098999934,[0.23055555555555557],[0.4888888888888889],[1],[0],[0],[1.7469872999936342],['target'],1,001,2024-10-09_13h56.29.694,Vision search,2024.1.5,None,2024-10-09 13h57.12.427129 +0530,
139,0,139,0,258.9076121999533,,258.87757579999743,10,258.9076121999533,258.9076121999533,0.019374200026504695,259.92241820000345,260.90703969995957,[-0.20555555555555555],[0.021296296296296296],[1],[0],[0],[2.010200700024143],['target'],1,001,2024-10-09_13h56.29.694,Vision search,2024.1.5,None,2024-10-09 13h57.12.427129 +0530,
140,0,140,0,260.9419596999651,,260.91073309996864,10,260.9419596999651,260.9419596999651,0.020501999999396503,261.9554663999588,263.57299019995844,[0.30185185185185187],[-0.33425925925925926],[1],[0],[0],[2.642197000037413],['target'],1,001,2024-10-09_13h56.29.694,Vision search,2024.1.5,None,2024-10-09 13h57.12.427129 +0530,
141,0,141,0,263.60436699999264,,263.5754310999764,10,263.60436699999264,263.60436699999264,0.017886999994516373,264.60479899996426,265.62333599996055,[0.2611111111111111],[0.05185185185185185],[1],[0],[0],[2.0296755000017583],['target'],1,001,2024-10-09_13h56.29.694,Vision search,2024.1.5,None,2024-10-09 13h57.12.427129 +0530,
142,0,142,0,265.65961430000607,,265.627426299965,10,265.65961430000607,265.65961430000607,0.021700100041925907,266.670983399963,267.6898535999935,[-0.1],[0.18333333333333332],[1],[0],[0],[2.0409551999764517],['target'],1,001,2024-10-09_13h56.29.694,Vision search,2024.1.5,None,2024-10-09 13h57.12.427129 +0530,
143,0,143,0,267.7116835999768,,267.69387620000634,5,267.7116835999768,267.7116835999768,0.011826599948108196,268.7209245999693,270.9718549999525,[-0.2851851851851852],[0.4861111111111111],[1],[0],[0],[3.2664751999545842],['target'],1,001,2024-10-09_13h56.29.694,Vision search,2024.1.5,None,2024-10-09 13h57.12.427129 +0530,
144,0,144,0,270.9914540000027,,270.9748572999961,5,270.9914540000027,270.9914540000027,0.00993870000820607,272.0034428999643,273.6381937999977,[0.4203703703703704],[-0.4148148148148148],[1],[0],[0],[2.653507599956356],['target'],1,001,2024-10-09_13h56.29.694,Vision search,2024.1.5,None,2024-10-09 13h57.12.427129 +0530,
145,0,145,0,273.6604213999817,,273.64222069998505,5,273.6604213999817,273.6604213999817,0.011451799946371466,274.6697407999891,275.53758399997605,[-0.03611111111111111],[-0.44907407407407407],[1],[0],[0],[1.8843535999767482],['target'],1,001,2024-10-09_13h56.29.694,Vision search,2024.1.5,None,2024-10-09 13h57.12.427129 +0530,
146,0,146,0,275.55858969996916,,275.54076820000773,5,275.55858969996916,275.55858969996916,0.010961799998767674,276.56957629998215,277.17053879995365,[-0.03333333333333333],[0.15555555555555556],[1],[0],[0],[1.6189235000056215],['target'],1,001,2024-10-09_13h56.29.694,Vision search,2024.1.5,None,2024-10-09 13h57.12.427129 +0530,
147,0,147,0,277.2056012999965,,277.17488359997515,10,277.2056012999965,277.2056012999965,0.0201305000227876,278.21866079996107,279.2706874999567,[0.41944444444444445],[-0.2574074074074074],[1],[0],[0],[2.0757961999624968],['target'],1,001,2024-10-09_13h56.29.694,Vision search,2024.1.5,None,2024-10-09 13h57.12.427129 +0530,
148,0,148,0,279.30559989996254,,279.274649399973,10,279.30559989996254,279.30559989996254,0.02079580002464354,280.319195899996,281.60347229999024,[-0.17592592592592593],[-0.4564814814814815],[1],[0],[0],[2.3082952999975532],['target'],1,001,2024-10-09_13h56.29.694,Vision search,2024.1.5,None,2024-10-09 13h57.12.427129 +0530,
149,0,149,0,281.6252295000013,,281.60721139999805,5,281.6252295000013,281.6252295000013,0.012240099953487515,282.63468479999574,282.9863735999679,[0.10833333333333334],[0.08055555555555556],[1],[0],[0],[1.3672443000250496],['target'],1,001,2024-10-09_13h56.29.694,Vision search,2024.1.5,None,2024-10-09 13h57.12.427129 +0530,
150,0,150,0,283.0062557999627,,282.98912739998195,5,283.0062557999627,283.0062557999627,0.00952069996856153,284.0175257999799,285.2354466999532,[0.3962962962962963],[-0.1527777777777778],[1],[0],[0],[2.236926899990067],['target'],1,001,2024-10-09_13h56.29.694,Vision search,2024.1.5,None,2024-10-09 13h57.12.427129 +0530,
151,0,151,0,285.2836788999848,,285.2404842999531,10,285.2836788999848,285.2836788999848,0.02957559999777004,286.28349409997463,286.9688839999726,[0.14907407407407408],[-0.10185185185185185],[1],[0],[0],[1.6991334999911487],['target'],1,001,2024-10-09_13h56.29.694,Vision search,2024.1.5,None,2024-10-09 13h57.12.427129 +0530,
152,0,152,0,286.9919716999866,,286.9728510999703,5,286.9919716999866,286.9919716999866,0.01277279999339953,287.9998798999586,289.40240129997255,[0.32222222222222224],[-0.42685185185185187],[1],[0],[0],[2.416986900032498],['target'],1,001,2024-10-09_13h56.29.694,Vision search,2024.1.5,None,2024-10-09 13h57.12.427129 +0530,
153,0,153,0,289.46875499997986,,289.40697509999154,10,289.46875499997986,289.46875499997986,0.05155189998913556,290.4828107999638,291.2669188999571,[-0.3037037037037037],[-0.14444444444444443],[1],[0],[0],[1.8089299999992363],['target'],1,001,2024-10-09_13h56.29.694,Vision search,2024.1.5,None,2024-10-09 13h57.12.427129 +0530,
154,0,154,0,291.30325070000254,,291.26930339995306,5,291.30325070000254,291.30325070000254,0.024791300005745143,292.3156725000008,293.03411829995457,[0.487962962962963],[-0.002777777777777778],[1],[0],[0],[1.7399759000400081],['target'],1,001,2024-10-09_13h56.29.694,Vision search,2024.1.5,None,2024-10-09 13h57.12.427129 +0530,
155,0,155,0,293.08469829999376,,293.0374870999949,10,293.08469829999376,293.08469829999376,0.0359465999645181,294.09878999996,294.8505047999788,[-0.39814814814814814],[0.07314814814814814],[1],[0],[0],[1.7769931000075303],['target'],1,001,2024-10-09_13h56.29.694,Vision search,2024.1.5,None,2024-10-09 13h57.12.427129 +0530,
156,0,156,0,294.8972656999831,,294.85476819996256,10,294.8972656999831,294.8972656999831,0.027942000015173107,295.8987991999602,297.917088599992,[0.000925925925925926],[-0.19537037037037036],[1],[0],[0],[3.0346139000030234],[],1,001,2024-10-09_13h56.29.694,Vision search,2024.1.5,None,2024-10-09 13h57.12.427129 +0530,
157,0,157,0,297.9564965000027,,297.92167749995133,10,297.9564965000027,297.9564965000027,0.026055899972561747,298.96421389997704,301.165522700001,[0.37592592592592594],[0.4685185185185185],[1],[0],[0],[3.218155900016427],['target'],1,001,2024-10-09_13h56.29.694,Vision search,2024.1.5,None,2024-10-09 13h57.12.427129 +0530,
158,0,158,0,301.2043230999843,,301.16930909996154,10,301.2043230999843,301.2043230999843,0.02321239997399971,302.21366929996293,303.28204439999536,[-0.425],[0.4101851851851852],[1],[0],[0],[2.089656699972693],['target'],1,001,2024-10-09_13h56.29.694,Vision search,2024.1.5,None,2024-10-09 13h57.12.427129 +0530,
159,0,159,0,303.3108604999725,,303.28678059997037,5,303.3108604999725,303.3108604999725,0.01613890001317486,304.31342379999114,304.7828770999913,[-0.19166666666666668],[0.16666666666666666],[1],[0],[0],[1.4801056999713182],['target'],1,001,2024-10-09_13h56.29.694,Vision search,2024.1.5,None,2024-10-09 13h57.12.427129 +0530,
160,0,160,0,304.8136342999642,,304.7871333999792,5,304.8136342999642,304.8136342999642,0.018414100049994886,305.8133822999662,306.26428359997226,[0.28425925925925927],[-0.1527777777777778],[1],[0],[0],[1.4592074999818578],['target'],1,001,2024-10-09_13h56.29.694,Vision search,2024.1.5,None,2024-10-09 13h57.12.427129 +0530,
161,0,161,0,306.28659440000774,,306.2672857999569,5,306.28659440000774,306.28659440000774,0.0134723000228405,307.29622829996515,307.6314112999826,[0.3990740740740741],[0.13055555555555556],[1],[0],[0],[1.350633900030516],['target'],1,001,2024-10-09_13h56.29.694,Vision search,2024.1.5,None,2024-10-09 13h57.12.427129 +0530,
162,0,162,0,307.6807895999518,,307.6366134999553,10,307.6807895999518,307.6807895999518,0.03401509998366237,308.6957282999647,309.13056689995574,[0.325],[0.014814814814814815],[1],[0],[0],[1.4604497000109404],['target'],1,001,2024-10-09_13h56.29.694,Vision search,2024.1.5,None,2024-10-09 13h57.12.427129 +0530,
163,0,163,0,309.1578859000001,,309.13436859997455,5,309.1578859000001,309.1578859000001,0.015612100018188357,310.1620392999612,310.72979049995774,[-0.12777777777777777],[0.2212962962962963],[1],[0],[0],[1.580199400021229],['target'],1,001,2024-10-09_13h56.29.694,Vision search,2024.1.5,None,2024-10-09 13h57.12.427129 +0530,
164,0,164,0,310.77588699996704,,310.74015199998394,10,310.77588699996704,310.77588699996704,0.027619000000413507,311.778053099988,312.54559779999545,[-0.12222222222222222],[-0.42314814814814816],[1],[0],[0],[1.777911100012716],['target'],1,001,2024-10-09_13h56.29.694,Vision search,2024.1.5,None,2024-10-09 13h57.12.427129 +0530,
165,0,165,0,312.5629962999956,,312.5478728999733,5,312.5629962999956,312.5629962999956,0.009226299996953458,313.5778167999815,313.9795564999804,[0.24166666666666667],[0.2351851851851852],[1],[0],[0],[1.4223787999944761],['target'],1,001,2024-10-09_13h56.29.694,Vision search,2024.1.5,None,2024-10-09 13h57.12.427129 +0530,
166,0,166,0,314.011657199997,,313.9838675999781,10,314.011657199997,314.011657199997,0.02003150002565235,315.0109174999525,316.2953182999627,[-0.14722222222222223],[-0.08425925925925926],[1],[0],[0],[2.2918343000346795],['target'],1,001,2024-10-09_13h56.29.694,Vision search,2024.1.5,None,2024-10-09 13h57.12.427129 +0530,
167,0,167,0,316.31339510000544,,316.29783529997803,5,316.31339510000544,316.31339510000544,0.009972199972253293,317.3269836999825,317.7788611999713,[0.20833333333333334],[-0.42314814814814816],[1],[0],[0],[1.4711658000014722],['target'],1,001,2024-10-09_13h56.29.694,Vision search,2024.1.5,None,2024-10-09 13h57.12.427129 +0530,
168,0,168,0,317.8101214999915,,317.7825276000076,10,317.8101214999915,317.8101214999915,0.019620600040070713,318.80999769998016,319.8608810000005,[0.4638888888888889],[0.2212962962962963],[1],[0],[0],[2.0590818999917246],['target'],1,001,2024-10-09_13h56.29.694,Vision search,2024.1.5,None,2024-10-09 13h57.12.427129 +0530,
169,0,169,0,319.88932789996034,,319.86443479999434,5,319.88932789996034,319.88932789996034,0.016421500011347234,320.8937232999597,321.82827259995975,[-0.05555555555555555],[-0.14537037037037037],[1],[0],[0],[1.9476221000077203],['target'],1,001,2024-10-09_13h56.29.694,Vision search,2024.1.5,None,2024-10-09 13h57.12.427129 +0530,
170,0,170,0,321.859356299974,,321.8321325999568,10,321.859356299974,321.859356299974,0.0195526999887079,322.8590197999729,324.8599156999844,[-0.45925925925925926],[-0.462037037037037],[1],[0],[0],[3.00863199995365],['target'],1,001,2024-10-09_13h56.29.694,Vision search,2024.1.5,None,2024-10-09 13h57.12.427129 +0530,
171,0,171,0,324.8884073999943,,324.8622167999856,10,324.8884073999943,324.8884073999943,0.01784909999696538,325.8918494999525,326.5927774999873,[0.002777777777777778],[0.3851851851851852],[1],[0],[0],[1.7129766999860294],['target'],1,001,2024-10-09_13h56.29.694,Vision search,2024.1.5,None,2024-10-09 13h57.12.427129 +0530,
172,0,172,0,326.6094671000028,,326.59452779998537,5,326.6094671000028,326.6094671000028,0.008861000009346753,327.6247357999673,328.02672709996114,[0.15462962962962962],[0.017592592592592594],[1],[0],[0],[1.4230710999690928],['target'],1,001,2024-10-09_13h56.29.694,Vision search,2024.1.5,None,2024-10-09 13h57.12.427129 +0530,
173,0,173,0,328.06227059999947,,328.03079039999284,10,328.06227059999947,328.06227059999947,0.021964100014884025,329.0747591999825,329.7922832999611,[0.3314814814814815],[0.075],[1],[0],[0],[1.7400573999620974],['target'],1,001,2024-10-09_13h56.29.694,Vision search,2024.1.5,None,2024-10-09 13h57.12.427129 +0530,
174,0,174,0,329.80955239996547,,329.7944988999516,5,329.80955239996547,329.80955239996547,0.00896669999929145,330.8242386999773,331.3598305999767,[0.4842592592592593],[0.04351851851851852],[1],[0],[0],[1.556044999975711],['target'],1,001,2024-10-09_13h56.29.694,Vision search,2024.1.5,None,2024-10-09 13h57.12.427129 +0530,
175,0,175,0,331.4098087999737,,331.36527359997854,10,331.4098087999737,331.4098087999737,0.0307907999958843,332.4238735999679,333.29149019997567,[0.24537037037037038],[-0.3101851851851852],[1],[0],[0],[1.8960395999602042],['target'],1,001,2024-10-09_13h56.29.694,Vision search,2024.1.5,None,2024-10-09 13h57.12.427129 +0530,
176,0,176,0,333.3111488999566,,333.29469349997817,5,333.3111488999566,333.3111488999566,0.010847900004591793,334.3241019999841,334.60878319997573,[0.07592592592592592],[-0.027777777777777776],[1],[0],[0],[1.3034331999951974],['target'],1,001,2024-10-09_13h56.29.694,Vision search,2024.1.5,None,2024-10-09 13h57.12.427129 +0530,
177,0,177,0,334.6321765999892,,334.61219449999044,5,334.6321765999892,334.6321765999892,0.011141799972392619,335.6400966999936,336.42435789998854,[-0.3212962962962963],[0.14166666666666666],[1],[0],[0],[1.8012963999644853],['target'],1,001,2024-10-09_13h56.29.694,Vision search,2024.1.5,None,2024-10-09 13h57.12.427129 +0530,
178,0,178,0,336.46599959995365,,336.42821439995896,10,336.46599959995365,336.46599959995365,0.02087880001636222,337.4727889999631,338.7734847999527,[-0.22870370370370371],[0.45740740740740743],[1],[0],[0],[2.3248793999664485],['target'],1,001,2024-10-09_13h56.29.694,Vision search,2024.1.5,None,2024-10-09 13h57.12.427129 +0530,
179,0,179,0,338.7936950000003,,338.77581009996356,5,338.7936950000003,338.7936950000003,0.009413400024641305,339.8059456999763,340.1407387999934,[0.040740740740740744],[0.38333333333333336],[1],[0],[0],[1.355608800018672],['target'],1,001,2024-10-09_13h56.29.694,Vision search,2024.1.5,None,2024-10-09 13h57.12.427129 +0530,
180,0,180,0,340.1797140999697,,340.1436336999759,10,340.1797140999697,340.1797140999697,0.018305000034160912,341.18867810000665,341.6065729999682,[0.3611111111111111],[0.3453703703703704],[1],[0],[0],[1.444845499994699],['target'],1,001,2024-10-09_13h56.29.694,Vision search,2024.1.5,None,2024-10-09 13h57.12.427129 +0530,
181,0,181,0,341.629473399953,,341.6093971999944,5,341.629473399953,341.629473399953,0.010706799977924675,342.6385375999962,343.1063404000015,[-0.16666666666666666],[0.40185185185185185],[1],[0],[0],[1.4863672999781556],['target'],1,001,2024-10-09_13h56.29.694,Vision search,2024.1.5,None,2024-10-09 13h57.12.427129 +0530,
182,0,182,0,343.1308643000084,,343.1095815000008,5,343.1308643000084,343.1308643000084,0.010856700013391674,344.1381952999509,344.52271859999746,[-0.022222222222222223],[0.29907407407407405],[1],[0],[0],[1.4025453999638557],['target'],1,001,2024-10-09_13h56.29.694,Vision search,2024.1.5,None,2024-10-09 13h57.12.427129 +0530,
183,0,183,0,344.56466149998596,,344.52603209996596,10,344.56466149998596,344.56466149998596,0.020088099990971386,345.5710133999819,346.17187619995093,[-0.05462962962962963],[0.4648148148148148],[1],[0],[0],[1.6261621000012383],['target'],1,001,2024-10-09_13h56.29.694,Vision search,2024.1.5,None,2024-10-09 13h57.12.427129 +0530,
184,0,184,0,346.2088780999766,,346.17412859998876,10,346.2088780999766,346.2088780999766,0.01739399996586144,347.22132029995555,348.3883574999636,[-0.3277777777777778],[-0.21481481481481482],[1],[0],[0],[2.1970073000411503],['target'],1,001,2024-10-09_13h56.29.694,Vision search,2024.1.5,None,2024-10-09 13h57.12.427129 +0530,
185,0,185,0,348.4258741000085,,348.3905162999872,10,348.4258741000085,348.4258741000085,0.017302799969911575,349.4370094999904,350.7544855999877,[0.18888888888888888],[0.4601851851851852],[1],[0],[0],[2.346720599976834],['target'],1,001,2024-10-09_13h56.29.694,Vision search,2024.1.5,None,2024-10-09 13h57.12.427129 +0530,
186,0,186,0,350.80248709995067,,350.7573558999575,10,350.80248709995067,350.80248709995067,0.02097229997161776,351.80309929995565,352.85455349995755,[-0.012962962962962963],[-0.33425925925925926],[1],[0],[0],[2.0761990000028163],['target'],1,001,2024-10-09_13h56.29.694,Vision search,2024.1.5,None,2024-10-09 13h57.12.427129 +0530,
187,0,187,0,352.8783248999971,,352.8582176999771,5,352.8783248999971,352.8783248999971,0.011367599945515394,353.8858297999832,354.73710339999525,[0.3055555555555556],[0.23148148148148148],[1],[0],[0],[1.8678863999666646],['target'],1,001,2024-10-09_13h56.29.694,Vision search,2024.1.5,None,2024-10-09 13h57.12.427129 +0530,
188,0,188,0,354.77968559996225,,354.7398201999604,10,354.77968559996225,354.77968559996225,0.01798840000992641,355.78560339997057,357.00288990000263,[-0.225],[-0.3962962962962963],[1],[0],[0],[2.2453594999969937],['target'],1,001,2024-10-09_13h56.29.694,Vision search,2024.1.5,None,2024-10-09 13h57.12.427129 +0530,
189,0,189,0,357.02600959996926,,357.00497799995355,5,357.02600959996926,357.02600959996926,0.009455399995204061,358.03515690000495,358.6029898999841,[0.32222222222222224],[-0.11944444444444445],[1],[0],[0],[1.5886259999824688],['target'],1,001,2024-10-09_13h56.29.694,Vision search,2024.1.5,None,2024-10-09 13h57.12.427129 +0530,
190,0,190,0,358.64875299995765,,358.60575109999627,10,358.64875299995765,358.64875299995765,0.018077500048093498,359.6516622999916,359.8357288999832,[0.17592592592592593],[0.20092592592592592],[1],[0],[0],[1.2121571999741718],['target'],1,001,2024-10-09_13h56.29.694,Vision search,2024.1.5,None,2024-10-09 13h57.12.427129 +0530,
191,0,191,0,359.8619031999842,,359.83827189996373,5,359.8619031999842,359.8619031999842,0.009844499989412725,360.8682394999778,361.3525815999601,[0.037037037037037035],[-0.11851851851851852],[1],[0],[0],[1.5046125000226311],['target'],1,001,2024-10-09_13h56.29.694,Vision search,2024.1.5,None,2024-10-09 13h57.12.427129 +0530,
192,0,192,0,361.38243569998303,,361.355544799997,5,361.38243569998303,361.38243569998303,0.015627600019797683,362.3846605999861,362.8022593999631,[0.46111111111111114],[0.007407407407407408],[1],[0],[0],[1.4312038000207394],['target'],1,001,2024-10-09_13h56.29.694,Vision search,2024.1.5,None,2024-10-09 13h57.12.427129 +0530,
193,0,193,0,362.83922709996114,,362.80571679997956,10,362.83922709996114,362.83922709996114,0.018949199991766363,363.8505446999916,366.0178240999812,[0.36666666666666664],[-0.31851851851851853],[1],[0],[0],[3.1935278000310063],['target'],1,001,2024-10-09_13h56.29.694,Vision search,2024.1.5,None,2024-10-09 13h57.12.427129 +0530,
194,0,194,0,366.0409749999526,,366.02068159997,5,366.0409749999526,366.0409749999526,0.010591199970804155,367.0497481999919,368.73438489995897,[-0.30185185185185187],[-0.1814814814814815],[1],[0],[0],[2.703297600033693],['target'],1,001,2024-10-09_13h56.29.694,Vision search,2024.1.5,None,2024-10-09 13h57.12.427129 +0530,
195,0,195,0,368.7599125999841,,368.73731659998884,5,368.7599125999841,368.7599125999841,0.00965720001840964,369.76598239998566,370.1685351000051,[0.05648148148148148],[-0.16203703703703703],[1],[0],[0],[1.4215814999770373],['target'],1,001,2024-10-09_13h56.29.694,Vision search,2024.1.5,None,2024-10-09 13h57.12.427129 +0530,
196,0,196,0,370.2201064999681,,370.1724661999615,10,370.2201064999681,370.2201064999681,0.02436360000865534,371.23208429996157,371.93434469995555,[-0.1361111111111111],[0.2462962962962963],[1],[0],[0],[1.7376416999613866],['target'],1,001,2024-10-09_13h56.29.694,Vision search,2024.1.5,None,2024-10-09 13h57.12.427129 +0530,
197,0,197,0,371.96652009995887,,371.9391796999844,5,371.96652009995887,371.96652009995887,0.01578499999595806,372.98209549998865,373.51695379999,[-0.4222222222222222],[0.027777777777777776],[1],[0],[0],[1.562485000002198],['target'],1,001,2024-10-09_13h56.29.694,Vision search,2024.1.5,None,2024-10-09 13h57.12.427129 +0530,
198,0,198,0,373.5370914999512,,373.520638099988,5,373.5370914999512,373.5370914999512,0.010825000004842877,374.548091500008,375.66726689995266,[-0.011111111111111112],[0.3888888888888889],[1],[0],[0],[2.1358457999886014],['target'],1,001,2024-10-09_13h56.29.694,Vision search,2024.1.5,None,2024-10-09 13h57.12.427129 +0530,
199,0,199,0,375.71850199997425,,375.67328519996954,10,375.71850199997425,375.71850199997425,0.030308799992781132,376.73165099998005,377.4988330999622,[0.14444444444444443],[-0.45740740740740743],[1],[0],[0],[1.795879999990575],['target'],1,001,2024-10-09_13h56.29.694,Vision search,2024.1.5,None,2024-10-09 13h57.12.427129 +0530,
