trials.thisRepN,trials.thisTrialN,trials.thisN,trials.thisIndex,thisRow.t,notes,trial.started,num_distr,fixation.started,target.started,mouse.started,fixation.stopped,trial.stopped,mouse.x,mouse.y,mouse.leftButton,mouse.midButton,mouse.rightButton,mouse.time,mouse.clicked_name,participant,session,date,expName,psychopyVersion,frameRate,expStart,
0,0,0,0,0.05187690001912415,,0.005836000025738031,10,0.05187690001912415,0.05187690001912415,0.02918729995144531,1.066059699980542,1.9256449000095017,[0.1398148148148148],[0.39351851851851855],[1],[0],[0],[1.8953635999932885],['target'],1,001,2024-10-09_13h47.25.652,Vision search,2024.1.5,None,2024-10-09 13h47.34.810128 +0530,
1,0,1,0,1.9709210000000894,,1.9340343000367284,10,1.9709210000000894,1.9709210000000894,0.028811100055463612,2.982488400011789,3.8165255000349134,[0.20462962962962963],[-0.4462962962962963],[1],[0],[0],[1.854124600009527],['target'],1,001,2024-10-09_13h47.25.652,Vision search,2024.1.5,None,2024-10-09 13h47.34.810128 +0530,
2,0,2,0,3.8355269000167027,,3.8199082000064664,5,3.8355269000167027,3.8355269000167027,0.010202499979641289,4.848662600037642,5.233592400036287,[0.23055555555555557],[0.11018518518518519],[1],[0],[0],[1.403592100017704],['target'],1,001,2024-10-09_13h47.25.652,Vision search,2024.1.5,None,2024-10-09 13h47.34.810128 +0530,
3,0,3,0,5.263548300019465,,5.237821399990935,5,5.263548300019465,5.263548300019465,0.017372400034219027,6.264968800009228,7.000000200001523,[0.13518518518518519],[-0.3],[1],[0],[0],[1.7449449999839999],['target'],1,001,2024-10-09_13h47.25.652,Vision search,2024.1.5,None,2024-10-09 13h47.34.810128 +0530,
4,0,4,0,7.043969999998808,,7.005066599987913,10,7.043969999998808,7.043969999998808,0.028677400026936084,8.04783930000849,8.649755100021139,[-0.1388888888888889],[0.46944444444444444],[1],[0],[0],[1.616322499990929],['target'],1,001,2024-10-09_13h47.25.652,Vision search,2024.1.5,None,2024-10-09 13h47.34.810128 +0530,
5,0,5,0,8.700616199988872,,8.653331200010143,10,8.700616199988872,8.700616199988872,0.0347493999870494,9.714083600032609,9.88218539999798,[0.026851851851851852],[0.27870370370370373],[1],[0],[0],[1.1943638999946415],['target'],1,001,2024-10-09_13h47.25.652,Vision search,2024.1.5,None,2024-10-09 13h47.34.810128 +0530,
6,0,6,0,9.903651500004344,,9.886230300005991,5,9.903651500004344,9.903651500004344,0.012387300026603043,10.914017800008878,11.166369399987161,[0.21574074074074073],[-0.1425925925925926],[1],[0],[0],[1.2675196999916807],['target'],1,001,2024-10-09_13h47.25.652,Vision search,2024.1.5,None,2024-10-09 13h47.34.810128 +0530,
7,0,7,0,11.207374399993569,,11.171418200014159,10,11.207374399993569,11.207374399993569,0.027854599989950657,12.213456100027543,12.948091500031296,[0.3648148148148148],[0.15833333333333333],[1],[0],[0],[1.7493933999794535],['target'],1,001,2024-10-09_13h47.25.652,Vision search,2024.1.5,None,2024-10-09 13h47.34.810128 +0530,
8,0,8,0,12.966578599996865,,12.950755700003356,5,12.966578599996865,12.966578599996865,0.010160100006032735,13.979962999990676,14.547933000023477,[-0.008333333333333333],[0.4527777777777778],[1],[0],[0],[1.5871246000169776],['target'],1,001,2024-10-09_13h47.25.652,Vision search,2024.1.5,None,2024-10-09 13h47.34.810128 +0530,
9,0,9,0,14.579627500032075,,14.550849199993536,10,14.579627500032075,14.579627500032075,0.020540700003039092,15.579532700008713,16.930430600012187,[-0.17407407407407408],[-0.33055555555555555],[1],[0],[0],[2.3592677999986336],['target'],1,001,2024-10-09_13h47.25.652,Vision search,2024.1.5,None,2024-10-09 13h47.34.810128 +0530,
10,0,10,0,16.966866000031587,,16.93296060001012,10,16.966866000031587,16.966866000031587,0.02148460003081709,17.979028400033712,18.663357399986126,[-0.48518518518518516],[-0.15092592592592594],[1],[0],[0],[1.7090161999803968],['target'],1,001,2024-10-09_13h47.25.652,Vision search,2024.1.5,None,2024-10-09 13h47.34.810128 +0530,
11,0,11,0,18.686677200021222,,18.668403699994087,5,18.686677200021222,18.686677200021222,0.012767500011250377,19.695866200025193,20.647019700030796,[-0.21481481481481482],[-0.12777777777777777],[1],[0],[0],[1.9663643999956548],['target'],1,001,2024-10-09_13h47.25.652,Vision search,2024.1.5,None,2024-10-09 13h47.34.810128 +0530,
12,0,12,0,20.6684949999908,,20.650380700011738,5,20.6684949999908,20.6684949999908,0.01312850002432242,21.678084600018337,21.896292500023264,[0.14907407407407408],[-0.044444444444444446],[1],[0],[0],[1.2329357999842614],['target'],1,001,2024-10-09_13h47.25.652,Vision search,2024.1.5,None,2024-10-09 13h47.34.810128 +0530,
13,0,13,0,21.9157375000068,,21.89937470003497,5,21.9157375000068,21.9157375000068,0.011100000003352761,22.927832500019576,23.29712380003184,[0.1537037037037037],[-0.08796296296296297],[1],[0],[0],[1.3864345999900252],['target'],1,001,2024-10-09_13h47.25.652,Vision search,2024.1.5,None,2024-10-09 13h47.34.810128 +0530,
14,0,14,0,23.325601399992593,,23.30192659999011,5,23.325601399992593,23.325601399992593,0.016584599972702563,24.32767570001306,24.963071200007107,[-0.28055555555555556],[0.19907407407407407],[1],[0],[0],[1.6449840999557637],['target'],1,001,2024-10-09_13h47.25.652,Vision search,2024.1.5,None,2024-10-09 13h47.34.810128 +0530,
15,0,15,0,25.003326800011564,,24.96690589998616,10,25.003326800011564,25.003326800011564,0.024609200016129762,26.010876499989536,26.545572600036394,[0.06759259259259259],[0.29814814814814816],[1],[0],[0],[1.554589599953033],['target'],1,001,2024-10-09_13h47.25.652,Vision search,2024.1.5,None,2024-10-09 13h47.34.810128 +0530,
16,0,16,0,26.566568300011568,,26.54786510003032,5,26.566568300011568,26.566568300011568,0.011255000019446015,27.577243599982467,28.228252100001555,[-0.002777777777777778],[-0.12407407407407407],[1],[0],[0],[1.6691449000500143],['target'],1,001,2024-10-09_13h47.25.652,Vision search,2024.1.5,None,2024-10-09 13h47.34.810128 +0530,
17,0,17,0,28.248726600024384,,28.23161010001786,5,28.248726600024384,28.248726600024384,0.01032080000732094,29.260208800027613,30.144694600021467,[0.1824074074074074],[-0.3314814814814815],[1],[0],[0],[1.9029878999572247],['target'],1,001,2024-10-09_13h47.25.652,Vision search,2024.1.5,None,2024-10-09 13h47.34.810128 +0530,
18,0,18,0,30.190235699992627,,30.147623500030022,10,30.190235699992627,30.190235699992627,0.01932160003343597,31.193110499996692,32.09409369999776,[-0.45185185185185184],[0.3212962962962963],[1],[0],[0],[1.9273113000090234],['target'],1,001,2024-10-09_13h47.25.652,Vision search,2024.1.5,None,2024-10-09 13h47.34.810128 +0530,
19,0,19,0,32.129278799984604,,32.09756419999758,10,32.129278799984604,32.129278799984604,0.020962499955203384,33.143126100010704,34.24358220002614,[0.35833333333333334],[-0.22592592592592592],[1],[0],[0],[2.1253731999895535],['target'],1,001,2024-10-09_13h47.25.652,Vision search,2024.1.5,None,2024-10-09 13h47.34.810128 +0530,
20,0,20,0,34.29076599999098,,34.24750390002737,10,34.29076599999098,34.29076599999098,0.029283000039868057,35.2918212999939,35.71141930000158,[0.22777777777777777],[0.1824074074074074],[1],[0],[0],[1.4336324000032619],['target'],1,001,2024-10-09_13h47.25.652,Vision search,2024.1.5,None,2024-10-09 13h47.34.810128 +0530,
21,0,21,0,35.80465320002986,,35.71445510000922,10,35.80465320002986,35.80465320002986,0.06672970001818612,36.8082142000203,38.37601740000537,[-0.026851851851851852],[-0.2212962962962963],[1],[0],[0],[2.595200800045859],['target'],1,001,2024-10-09_13h47.25.652,Vision search,2024.1.5,None,2024-10-09 13h47.34.810128 +0530,
22,0,22,0,38.40831560001243,,38.3783205000218,10,38.40831560001243,38.40831560001243,0.018167099973652512,39.40797990001738,39.992119700007606,[-0.16944444444444445],[-0.000925925925925926],[1],[0],[0],[1.595837400003802],['target'],1,001,2024-10-09_13h47.25.652,Vision search,2024.1.5,None,2024-10-09 13h47.34.810128 +0530,
23,0,23,0,40.01675840001553,,39.99465950002195,5,40.01675840001553,40.01675840001553,0.010066399991046637,41.02423540002201,41.62544929998694,[-0.42777777777777776],[0.025925925925925925],[1],[0],[0],[1.620981399959419],['target'],1,001,2024-10-09_13h47.25.652,Vision search,2024.1.5,None,2024-10-09 13h47.34.810128 +0530,
24,0,24,0,41.64638280001236,,41.6284879000159,5,41.64638280001236,41.64638280001236,0.009465600014664233,42.65715490002185,42.87533230002737,[0.21296296296296297],[0.18888888888888888],[1],[0],[0],[1.2375834000413306],['target'],1,001,2024-10-09_13h47.25.652,Vision search,2024.1.5,None,2024-10-09 13h47.34.810128 +0530,
25,0,25,0,42.905846200010274,,42.87844729999779,5,42.905846200010274,42.905846200010274,0.011460900015663356,43.90695390000474,44.392110500019044,[0.001851851851851852],[0.17777777777777778],[1],[0],[0],[1.5019121000077575],['target'],1,001,2024-10-09_13h47.25.652,Vision search,2024.1.5,None,2024-10-09 13h47.34.810128 +0530,
26,0,26,0,44.436686800036114,,44.395784399996046,10,44.436686800036114,44.436686800036114,0.0201171999797225,45.44004020001739,47.20744770002784,[-0.34629629629629627],[0.45925925925925926],[1],[0],[0],[2.7918475000187755],[],1,001,2024-10-09_13h47.25.652,Vision search,2024.1.5,None,2024-10-09 13h47.34.810128 +0530,
27,0,27,0,47.23436529998435,,47.21067080000648,5,47.23436529998435,47.23436529998435,0.011053700000047684,48.23927590000676,48.557977300020866,[0.13703703703703704],[-0.14537037037037037],[1],[0],[0],[1.3362766000209376],['target'],1,001,2024-10-09_13h47.25.652,Vision search,2024.1.5,None,2024-10-09 13h47.34.810128 +0530,
28,0,28,0,48.61383610003395,,48.56306339998264,10,48.61383610003395,48.61383610003395,0.023017100000288337,49.62262270000065,50.32451659999788,[-0.3138888888888889],[0.38333333333333336],[1],[0],[0],[1.7388651000219397],['target'],1,001,2024-10-09_13h47.25.652,Vision search,2024.1.5,None,2024-10-09 13h47.34.810128 +0530,
29,0,29,0,50.35045850003371,,50.32861070003128,5,50.35045850003371,50.35045850003371,0.01259669999126345,51.35507210000651,51.65751480002655,[0.13796296296296295],[-0.041666666666666664],[1],[0],[0],[1.316497000050731],['target'],1,001,2024-10-09_13h47.25.652,Vision search,2024.1.5,None,2024-10-09 13h47.34.810128 +0530,
30,0,30,0,51.71014480001759,,51.66183930000989,10,51.71014480001759,51.71014480001759,0.020713099977001548,52.72182390000671,53.32288430002518,[0.11388888888888889],[0.29907407407407405],[1],[0],[0],[1.6406530999811366],['target'],1,001,2024-10-09_13h47.25.652,Vision search,2024.1.5,None,2024-10-09 13h47.34.810128 +0530,
31,0,31,0,53.368840700015426,,53.32729310001014,10,53.368840700015426,53.368840700015426,0.021345200017094612,54.3713160000043,55.37215850001667,[-0.2759259259259259],[-0.39166666666666666],[1],[0],[0],[2.0241715000011027],['target'],1,001,2024-10-09_13h47.25.652,Vision search,2024.1.5,None,2024-10-09 13h47.34.810128 +0530,
32,0,32,0,55.3911008000141,,55.375300300016534,5,55.3911008000141,55.3911008000141,0.009366900019813329,56.40422419999959,56.83956759999273,[-0.13333333333333333],[-0.03518518518518519],[1],[0],[0],[1.454657199967187],['target'],1,001,2024-10-09_13h47.25.652,Vision search,2024.1.5,None,2024-10-09 13h47.34.810128 +0530,
33,0,33,0,56.88636549998773,,56.84274600003846,10,56.88636549998773,56.88636549998773,0.019984299957286566,57.8873978999909,60.47089340002276,[-0.31203703703703706],[-0.387037037037037],[1],[0],[0],[3.608531599980779],['target'],1,001,2024-10-09_13h47.25.652,Vision search,2024.1.5,None,2024-10-09 13h47.34.810128 +0530,
34,0,34,0,60.51478460000362,,60.47290039999643,10,60.51478460000362,60.51478460000362,0.017343099985737354,61.52032389998203,62.68736839998746,[-0.13703703703703704],[-0.3333333333333333],[1],[0],[0],[2.197220499976538],['target'],1,001,2024-10-09_13h47.25.652,Vision search,2024.1.5,None,2024-10-09 13h47.34.810128 +0530,
35,0,35,0,62.71596340002725,,62.68965459999163,5,62.71596340002725,62.71596340002725,0.009373000008054078,63.71955789998174,64.55390490003629,[-0.49444444444444446],[-0.23333333333333334],[1],[0],[0],[1.8548035999992862],['target'],1,001,2024-10-09_13h47.25.652,Vision search,2024.1.5,None,2024-10-09 13h47.34.810128 +0530,
36,0,36,0,64.59973860002356,,64.55683640000643,10,64.59973860002356,64.59973860002356,0.020279299991670996,65.60212689999025,65.82034209999256,[0.23333333333333334],[0.05462962962962963],[1],[0],[0],[1.243305399955716],['target'],1,001,2024-10-09_13h47.25.652,Vision search,2024.1.5,None,2024-10-09 13h47.34.810128 +0530,
37,0,37,0,65.85364779998781,,65.82747650000965,5,65.85364779998781,65.85364779998781,0.009994800027925521,66.86858970002504,67.71974020003108,[-0.4583333333333333],[-0.4675925925925926],[1],[0],[0],[1.8823005000012927],['target'],1,001,2024-10-09_13h47.25.652,Vision search,2024.1.5,None,2024-10-09 13h47.34.810128 +0530,
38,0,38,0,67.76376280002296,,67.7222454000148,10,67.76376280002296,67.76376280002296,0.018020999967120588,68.76859809999587,69.76949650002643,[-0.12407407407407407],[0.2796296296296296],[1],[0],[0],[2.0293016000068747],['target'],1,001,2024-10-09_13h47.25.652,Vision search,2024.1.5,None,2024-10-09 13h47.34.810128 +0530,
39,0,39,0,69.81624539999757,,69.7731472000014,10,69.81624539999757,69.81624539999757,0.02074670000001788,70.81816150003579,72.05210550001357,[0.3398148148148148],[-0.19722222222222222],[1],[0],[0],[2.258478300005663],['target'],1,001,2024-10-09_13h47.25.652,Vision search,2024.1.5,None,2024-10-09 13h47.34.810128 +0530,
40,0,40,0,72.07214820000809,,72.05526090000058,5,72.07214820000809,72.07214820000809,0.01097129995469004,73.08399830001872,73.31883860001108,[0.25277777777777777],[-0.09722222222222222],[1],[0],[0],[1.252798300003633],['target'],1,001,2024-10-09_13h47.25.652,Vision search,2024.1.5,None,2024-10-09 13h47.34.810128 +0530,
41,0,41,0,73.34142960002646,,73.322488899983,5,73.34142960002646,73.34142960002646,0.011363600031472743,74.3503804000211,75.35230189998401,[0.0],[0.4212962962962963],[1],[0],[0],[2.0184690000023693],['target'],1,001,2024-10-09_13h47.25.652,Vision search,2024.1.5,None,2024-10-09 13h47.34.810128 +0530,
42,0,42,0,75.40713499998674,,75.3572920000297,10,75.40713499998674,75.40713499998674,0.03060830000322312,76.41652249998879,77.60068030003458,[-0.32685185185185184],[-0.14722222222222223],[1],[0],[0],[2.2135475000250153],['target'],1,001,2024-10-09_13h47.25.652,Vision search,2024.1.5,None,2024-10-09 13h47.34.810128 +0530,
43,0,43,0,77.62269210000522,,77.6024365000194,5,77.62269210000522,77.62269210000522,0.0086571000283584,78.63290060003055,78.98439420002978,[0.025],[0.040740740740740744],[1],[0],[0],[1.3731360999518074],['target'],1,001,2024-10-09_13h47.25.652,Vision search,2024.1.5,None,2024-10-09 13h47.34.810128 +0530,
44,0,44,0,79.01856769999722,,78.98804910003673,5,79.01856769999722,79.01856769999722,0.011293799965642393,80.03275620000204,80.80131040001288,[-0.3425925925925926],[-0.45185185185185184],[1],[0],[0],[1.8021023000474088],['target'],1,001,2024-10-09_13h47.25.652,Vision search,2024.1.5,None,2024-10-09 13h47.34.810128 +0530,
45,0,45,0,80.83533400000306,,80.80584320001071,5,80.83533400000306,80.83533400000306,0.01447390002431348,81.8491095000063,82.2664154000231,[-0.34074074074074073],[-0.09351851851851851],[1],[0],[0],[1.4466841999674216],['target'],1,001,2024-10-09_13h47.25.652,Vision search,2024.1.5,None,2024-10-09 13h47.34.810128 +0530,
46,0,46,0,82.30937289999565,,82.26917139999568,10,82.30937289999565,82.30937289999565,0.01863539998885244,83.3150808000355,85.04926270002034,[-0.09444444444444444],[-0.47962962962962963],[1],[0],[0],[2.7616842999705113],['target'],1,001,2024-10-09_13h47.25.652,Vision search,2024.1.5,None,2024-10-09 13h47.34.810128 +0530,
47,0,47,0,85.09348769998178,,85.0517388000153,10,85.09348769998178,85.09348769998178,0.020442600012756884,86.09807830001228,86.71557340002619,[0.2175925925925926],[0.11666666666666667],[1],[0],[0],[1.6435438999906182],['target'],1,001,2024-10-09_13h47.25.652,Vision search,2024.1.5,None,2024-10-09 13h47.34.810128 +0530,
48,0,48,0,86.75680830003694,,86.7181702000089,10,86.75680830003694,86.75680830003694,0.02197679999517277,87.76427970000077,89.56952319998527,[0.10555555555555556],[-0.32037037037037036],[1],[0],[0],[2.8295301999896765],['target'],1,001,2024-10-09_13h47.25.652,Vision search,2024.1.5,None,2024-10-09 13h47.34.810128 +0530,
49,0,49,0,89.6031190000358,,89.57184350001626,5,89.6031190000358,89.6031190000358,0.012571899977046996,90.61372720001964,90.99817670002813,[-0.17592592592592593],[0.36203703703703705],[1],[0],[0],[1.4137578000081703],['target'],1,001,2024-10-09_13h47.25.652,Vision search,2024.1.5,None,2024-10-09 13h47.34.810128 +0530,
50,0,50,0,91.019769800012,,91.00111479999032,5,91.019769800012,91.019769800012,0.0097061000415124,92.03020049998304,93.26460430002771,[-0.012962962962962963],[0.04537037037037037],[1],[0],[0],[2.2539453000063077],['target'],1,001,2024-10-09_13h47.25.652,Vision search,2024.1.5,None,2024-10-09 13h47.34.810128 +0530,
51,0,51,0,93.29723430000013,,93.26788980001584,10,93.29723430000013,93.29723430000013,0.01920449995668605,94.29651399998693,96.13022570003523,[0.4222222222222222],[0.3907407407407407],[1],[0],[0],[2.843407899956219],['target'],1,001,2024-10-09_13h47.25.652,Vision search,2024.1.5,None,2024-10-09 13h47.34.810128 +0530,
52,0,52,0,96.18169500003569,,96.13316110003507,10,96.18169500003569,96.18169500003569,0.02851630002260208,97.195439800038,98.17975589999696,[0.42314814814814816],[-0.003703703703703704],[1],[0],[0],[2.0183787000132725],['target'],1,001,2024-10-09_13h47.25.652,Vision search,2024.1.5,None,2024-10-09 13h47.34.810128 +0530,
53,0,53,0,98.20033520000288,,98.18218820000766,5,98.20033520000288,98.20033520000288,0.009538099984638393,99.21189630002482,99.79730999999447,[0.06018518518518518],[0.21296296296296297],[1],[0],[0],[1.6054226999985985],['target'],1,001,2024-10-09_13h47.25.652,Vision search,2024.1.5,None,2024-10-09 13h47.34.810128 +0530,
54,0,54,0,99.84297789999982,,99.80084550002357,10,99.84297789999982,99.84297789999982,0.01986240001861006,100.84480700001586,101.479790900019,[-0.18981481481481483],[-0.008333333333333333],[1],[0],[0],[1.6593372999923304],['target'],1,001,2024-10-09_13h47.25.652,Vision search,2024.1.5,None,2024-10-09 13h47.34.810128 +0530,
55,0,55,0,101.50228260003496,,101.48333220003406,5,101.50228260003496,101.50228260003496,0.012231700005941093,102.51104599999962,102.81304510001792,[-0.09722222222222222],[-0.2175925925925926],[1],[0],[0],[1.3177028000354767],['target'],1,001,2024-10-09_13h47.25.652,Vision search,2024.1.5,None,2024-10-09 13h47.34.810128 +0530,
56,0,56,0,102.84981139999582,,102.81665860000066,10,102.84981139999582,102.84981139999582,0.019129199965391308,103.86066290002782,104.728356000036,[-0.45185185185185184],[0.4361111111111111],[1],[0],[0],[1.8929592999629676],['target'],1,001,2024-10-09_13h47.25.652,Vision search,2024.1.5,None,2024-10-09 13h47.34.810128 +0530,
57,0,57,0,104.77250600000843,,104.73091420001583,10,104.77250600000843,104.77250600000843,0.01865040004486218,105.77692640002351,106.07846769999014,[-0.26666666666666666],[0.41944444444444445],[1],[0],[0],[1.3290767999715172],['target'],1,001,2024-10-09_13h47.25.652,Vision search,2024.1.5,None,2024-10-09 13h47.34.810128 +0530,
58,0,58,0,106.11204520001775,,106.08118480001576,10,106.11204520001775,106.11204520001775,0.01796580001246184,107.12683470000047,107.66262020001886,[0.1962962962962963],[-0.12962962962962962],[1],[0],[0],[1.5631302999681793],['target'],1,001,2024-10-09_13h47.25.652,Vision search,2024.1.5,None,2024-10-09 13h47.34.810128 +0530,
59,0,59,0,107.68701420002617,,107.66693479998503,5,107.68701420002617,107.68701420002617,0.01461600000038743,108.6930696000345,109.62820839998312,[-0.22777777777777777],[0.14722222222222223],[1],[0],[0],[1.9472214000415988],['target'],1,001,2024-10-09_13h47.25.652,Vision search,2024.1.5,None,2024-10-09 13h47.34.810128 +0530,
60,0,60,0,109.66004220000468,,109.63196299999254,5,109.66004220000468,109.66004220000468,0.012744100007694215,110.65974949998781,111.62810000003083,[-0.3472222222222222],[-0.4537037037037037],[1],[0],[0],[1.9835718999966048],['target'],1,001,2024-10-09_13h47.25.652,Vision search,2024.1.5,None,2024-10-09 13h47.34.810128 +0530,
61,0,61,0,111.6707071000128,,111.63206560001709,5,111.6707071000128,111.6707071000128,0.018994899990502745,112.67561650002608,113.0268289000378,[-0.39351851851851855],[-0.18981481481481483],[1],[0],[0],[1.3761280999751762],['target'],1,001,2024-10-09_13h47.25.652,Vision search,2024.1.5,None,2024-10-09 13h47.34.810128 +0530,
62,0,62,0,113.05425210000249,,113.03010760003235,5,113.05425210000249,113.05425210000249,0.010281700000632554,114.05907100002514,114.69282669998938,[0.3388888888888889],[-0.20833333333333334],[1],[0],[0],[1.6527076000347733],['target'],1,001,2024-10-09_13h47.25.652,Vision search,2024.1.5,None,2024-10-09 13h47.34.810128 +0530,
63,0,63,0,114.73747089999961,,114.69573590002256,10,114.73747089999961,114.73747089999961,0.01958100002957508,115.74150790000567,116.05948559998069,[0.14629629629629629],[0.03425925925925926],[1],[0],[0],[1.3444371999939904],['target'],1,001,2024-10-09_13h47.25.652,Vision search,2024.1.5,None,2024-10-09 13h47.34.810128 +0530,
64,0,64,0,116.0890791999991,,116.06185340002412,5,116.0890791999991,116.0890791999991,0.009730399993713945,117.09139780001715,117.42693240003427,[0.15092592592592594],[0.3138888888888889],[1],[0],[0],[1.3551742999698035],['target'],1,001,2024-10-09_13h47.25.652,Vision search,2024.1.5,None,2024-10-09 13h47.34.810128 +0530,
65,0,65,0,117.48669550003251,,117.43220969999675,10,117.48669550003251,117.48669550003251,0.03066899999976158,118.49127310002223,118.82546760002151,[-0.19166666666666668],[-0.07407407407407407],[1],[0],[0],[1.363320800010115],['target'],1,001,2024-10-09_13h47.25.652,Vision search,2024.1.5,None,2024-10-09 13h47.34.810128 +0530,
66,0,66,0,118.84615689999191,,118.8276937000337,5,118.84615689999191,118.84615689999191,0.009202200046274811,119.85715709999204,120.09221500001149,[-0.21388888888888888],[0.1638888888888889],[1],[0],[0],[1.2553524000104517],['target'],1,001,2024-10-09_13h47.25.652,Vision search,2024.1.5,None,2024-10-09 13h47.34.810128 +0530,
67,0,67,0,120.13411189999897,,120.09487040003296,10,120.13411189999897,120.13411189999897,0.019703100027982146,121.14030740002636,122.50843620003434,[-0.08518518518518518],[-0.32037037037037036],[1],[0],[0],[2.393898000009358],['target'],1,001,2024-10-09_13h47.25.652,Vision search,2024.1.5,None,2024-10-09 13h47.34.810128 +0530,
68,0,68,0,122.53674160002265,,122.51033399999142,10,122.53674160002265,122.53674160002265,0.018036100023891777,123.5399383000331,125.04062119999435,[-0.20833333333333334],[-0.47129629629629627],[1],[0],[0],[2.512337399995886],['target'],1,001,2024-10-09_13h47.25.652,Vision search,2024.1.5,None,2024-10-09 13h47.34.810128 +0530,
69,0,69,0,125.06086100003449,,125.04314090003027,5,125.06086100003449,125.06086100003449,0.0093889000127092,126.07291590003297,126.40738430002239,[-0.10462962962962963],[0.375],[1],[0],[0],[1.3549899000208825],['target'],1,001,2024-10-09_13h47.25.652,Vision search,2024.1.5,None,2024-10-09 13h47.34.810128 +0530,
70,0,70,0,126.45126509998227,,126.41048040002352,10,126.45126509998227,126.45126509998227,0.018175899982452393,127.45577960001538,128.2899119000067,[0.34629629629629627],[-0.2916666666666667],[1],[0],[0],[1.8615928000072017],['target'],1,001,2024-10-09_13h47.25.652,Vision search,2024.1.5,None,2024-10-09 13h47.34.810128 +0530,
71,0,71,0,128.3079965999932,,128.29200690001016,5,128.3079965999932,128.3079965999932,0.009223499975632876,129.32232909998856,129.9731511999853,[-0.1787037037037037],[0.4064814814814815],[1],[0],[0],[1.6719635999761522],['target'],1,001,2024-10-09_13h47.25.652,Vision search,2024.1.5,None,2024-10-09 13h47.34.810128 +0530,
72,0,72,0,130.01437570003327,,129.97644729999593,10,130.01437570003327,130.01437570003327,0.01801190001424402,131.02164290001383,131.62246490002144,[0.4583333333333333],[-0.2935185185185185],[1],[0],[0],[1.6282401000498794],['target'],1,001,2024-10-09_13h47.25.652,Vision search,2024.1.5,None,2024-10-09 13h47.34.810128 +0530,
73,0,73,0,131.65339170000516,,131.62577919999603,5,131.65339170000516,131.65339170000516,0.015878499951213598,132.65467650000937,134.82294179999735,[-0.05092592592592592],[0.4703703703703704],[1],[0],[0],[3.181422299996484],['target'],1,001,2024-10-09_13h47.25.652,Vision search,2024.1.5,None,2024-10-09 13h47.34.810128 +0530,
74,0,74,0,134.87519900000188,,134.82698900002288,10,134.87519900000188,134.87519900000188,0.02605849999235943,135.88728920003632,136.5714773000218,[-0.20555555555555555],[0.42314814814814816],[1],[0],[0],[1.7189368000254035],['target'],1,001,2024-10-09_13h47.25.652,Vision search,2024.1.5,None,2024-10-09 13h47.34.810128 +0530,
75,0,75,0,136.6164644000237,,136.57405480003217,10,136.6164644000237,136.6164644000237,0.018652800004929304,137.6202001000056,137.9549322000239,[0.20555555555555555],[0.20185185185185187],[1],[0],[0],[1.362260299967602],['target'],1,001,2024-10-09_13h47.25.652,Vision search,2024.1.5,None,2024-10-09 13h47.34.810128 +0530,
76,0,76,0,137.98336549999658,,137.9597797000315,5,137.98336549999658,137.98336549999658,0.012049400014802814,138.98685159999877,139.62156160001177,[-0.3],[-0.4148148148148148],[1],[0],[0],[1.6500876999925822],['target'],1,001,2024-10-09_13h47.25.652,Vision search,2024.1.5,None,2024-10-09 13h47.34.810128 +0530,
77,0,77,0,139.650893300015,,139.62518199998885,5,139.650893300015,139.650893300015,0.011713699961546808,140.65313679998508,141.33847289998084,[-0.32314814814814813],[-0.2361111111111111],[1],[0],[0],[1.7017993000335991],['target'],1,001,2024-10-09_13h47.25.652,Vision search,2024.1.5,None,2024-10-09 13h47.34.810128 +0530,
78,0,78,0,141.3971976999892,,141.34228139999323,10,141.3971976999892,141.3971976999892,0.03504779998911545,142.4026026999927,143.02025990001857,[0.07685185185185185],[0.39166666666666666],[1],[0],[0],[1.6432468999992125],['target'],1,001,2024-10-09_13h47.25.652,Vision search,2024.1.5,None,2024-10-09 13h47.34.810128 +0530,
79,0,79,0,143.03926600003615,,143.0229463999858,5,143.03926600003615,143.03926600003615,0.01033570000436157,144.05230939999456,144.386851200019,[0.38796296296296295],[0.06481481481481481],[1],[0],[0],[1.353786299994681],['target'],1,001,2024-10-09_13h47.25.652,Vision search,2024.1.5,None,2024-10-09 13h47.34.810128 +0530,
80,0,80,0,144.42484990000958,,144.38923189998604,10,144.42484990000958,144.42484990000958,0.018485200009308755,145.43516920000548,146.97060649999185,[-0.09537037037037037],[-0.31574074074074077],[1],[0],[0],[2.562573400035035],['target'],1,001,2024-10-09_13h47.25.652,Vision search,2024.1.5,None,2024-10-09 13h47.34.810128 +0530,
81,0,81,0,147.01229139999487,,146.97497280000243,10,147.01229139999487,147.01229139999487,0.023260599991772324,148.01805820001755,148.6201361999847,[0.24074074074074073],[0.31296296296296294],[1],[0],[0],[1.622227399959229],['target'],1,001,2024-10-09_13h47.25.652,Vision search,2024.1.5,None,2024-10-09 13h47.34.810128 +0530,
82,0,82,0,148.64230320003117,,148.62382079998497,5,148.64230320003117,148.64230320003117,0.012201500008814037,149.65120419999585,150.65259300003527,[-0.025],[0.37777777777777777],[1],[0],[0],[2.0168543999898247],['target'],1,001,2024-10-09_13h47.25.652,Vision search,2024.1.5,None,2024-10-09 13h47.34.810128 +0530,
83,0,83,0,150.68614240002353,,150.6565677000326,10,150.68614240002353,150.68614240002353,0.020623599993996322,151.70072080002865,152.4690151999821,[-0.046296296296296294],[0.3277777777777778],[1],[0],[0],[1.7920526000089012],['target'],1,001,2024-10-09_13h47.25.652,Vision search,2024.1.5,None,2024-10-09 13h47.34.810128 +0530,
84,0,84,0,152.4924108000123,,152.47382230003132,5,152.4924108000123,152.4924108000123,0.013593300012871623,153.5003432999947,154.91958719998365,[-0.3490740740740741],[0.1111111111111111],[1],[0],[0],[2.4323050000239164],['target'],1,001,2024-10-09_13h47.25.652,Vision search,2024.1.5,None,2024-10-09 13h47.34.810128 +0530,
85,0,85,0,154.9552129000076,,154.92455520003568,10,154.9552129000076,154.9552129000076,0.02202400000533089,155.96654270001454,156.26878899999429,[0.29259259259259257],[0.13703703703703704],[1],[0],[0],[1.32235190004576],['target'],1,001,2024-10-09_13h47.25.652,Vision search,2024.1.5,None,2024-10-09 13h47.34.810128 +0530,
86,0,86,0,156.32202160003362,,156.27248390001478,10,156.32202160003362,156.32202160003362,0.024894999980460852,157.3327952999971,157.65030610002577,[0.21944444444444444],[0.3416666666666667],[1],[0],[0],[1.353328600001987],['target'],1,001,2024-10-09_13h47.25.652,Vision search,2024.1.5,None,2024-10-09 13h47.34.810128 +0530,
87,0,87,0,157.6791090000188,,157.65338169998722,5,157.6791090000188,157.6791090000188,0.015370400040410459,158.68249460001243,158.88449389999732,[0.20462962962962963],[0.2351851851851852],[1],[0],[0],[1.2158195999800228],['target'],1,001,2024-10-09_13h47.25.652,Vision search,2024.1.5,None,2024-10-09 13h47.34.810128 +0530,
88,0,88,0,158.93240950000472,,158.88837050000438,10,158.93240950000472,158.93240950000472,0.0297359999967739,159.93233799998416,160.83370070002275,[-0.27685185185185185],[0.4074074074074074],[1],[0],[0],[1.9159142000135034],['target'],1,001,2024-10-09_13h47.25.652,Vision search,2024.1.5,None,2024-10-09 13h47.34.810128 +0530,
89,0,89,0,160.87930149998283,,160.8372027000296,10,160.87930149998283,160.87930149998283,0.029256700014229864,161.88191140000708,162.56662120000692,[0.3287037037037037],[0.24166666666666667],[1],[0],[0],[1.7003624999779277],['target'],1,001,2024-10-09_13h47.25.652,Vision search,2024.1.5,None,2024-10-09 13h47.34.810128 +0530,
90,0,90,0,162.5924313000287,,162.57053690002067,5,162.5924313000287,162.5924313000287,0.01264689996605739,163.59831249999115,164.2496194000123,[-0.10648148148148148],[-0.14629629629629629],[1],[0],[0],[1.666795099969022],['target'],1,001,2024-10-09_13h47.25.652,Vision search,2024.1.5,None,2024-10-09 13h47.34.810128 +0530,
91,0,91,0,164.2878606999875,,164.25321689998964,10,164.2878606999875,164.2878606999875,0.019686400017235428,165.29797569999937,165.5658883000142,[-0.19074074074074074],[0.08148148148148149],[1],[0],[0],[1.2931788999703713],['target'],1,001,2024-10-09_13h47.25.652,Vision search,2024.1.5,None,2024-10-09 13h47.34.810128 +0530,
92,0,92,0,165.6184030000004,,165.56904000003124,10,165.6184030000004,165.6184030000004,0.029480400029569864,166.63080819998868,168.23146799998358,[-0.47685185185185186],[-0.3648148148148148],[1],[0],[0],[2.633373800024856],['target'],1,001,2024-10-09_13h47.25.652,Vision search,2024.1.5,None,2024-10-09 13h47.34.810128 +0530,
93,0,93,0,168.26935309998225,,168.23836600000504,10,168.26935309998225,168.26935309998225,0.019926799985114485,169.28041140001733,170.64805180003168,[-0.27685185185185185],[-0.3416666666666667],[1],[0],[0],[2.38977629999863],['target'],1,001,2024-10-09_13h47.25.652,Vision search,2024.1.5,None,2024-10-09 13h47.34.810128 +0530,
94,0,94,0,170.66748220002046,,170.65054240002064,5,170.66748220002046,170.66748220002046,0.009303600003477186,171.67984589998377,172.26480990002165,[0.475],[-0.27314814814814814],[1],[0],[0],[1.6050187000073493],['target'],1,001,2024-10-09_13h47.25.652,Vision search,2024.1.5,None,2024-10-09 13h47.34.810128 +0530,
95,0,95,0,172.30000909999944,,172.2688402000349,5,172.30000909999944,172.30000909999944,0.011120000039227307,173.31305330002215,174.04736050002975,[0.13148148148148148],[0.062037037037037036],[1],[0],[0],[1.7676110999891534],['target'],1,001,2024-10-09_13h47.25.652,Vision search,2024.1.5,None,2024-10-09 13h47.34.810128 +0530,
96,0,96,0,174.09271290001925,,174.05061939998996,10,174.09271290001925,174.09271290001925,0.019898500002454966,175.09573360002832,176.56399350002175,[-0.43796296296296294],[-0.36018518518518516],[1],[0],[0],[2.4935203000204638],['target'],1,001,2024-10-09_13h47.25.652,Vision search,2024.1.5,None,2024-10-09 13h47.34.810128 +0530,
97,0,97,0,176.5865036000032,,176.56829299998935,5,176.5865036000032,176.5865036000032,0.011616599978879094,177.59539299999597,178.36381200002506,[-0.37222222222222223],[0.2740740740740741],[1],[0],[0],[1.783848899998702],['target'],1,001,2024-10-09_13h47.25.652,Vision search,2024.1.5,None,2024-10-09 13h47.34.810128 +0530,
98,0,98,0,178.42485280003166,,178.36931119998917,10,178.42485280003166,178.42485280003166,0.03348689997801557,179.42792450002162,179.68035979999695,[-0.21388888888888888],[0.32222222222222224],[1],[0],[0],[1.278028099972289],['target'],1,001,2024-10-09_13h47.25.652,Vision search,2024.1.5,None,2024-10-09 13h47.34.810128 +0530,
99,0,99,0,179.72429799998645,,179.6842918000184,10,179.72429799998645,179.72429799998645,0.019671000016387552,180.72766859998228,181.61226660001557,[0.037037037037037035],[-0.16666666666666666],[1],[0],[0],[1.9086593000101857],['target'],1,001,2024-10-09_13h47.25.652,Vision search,2024.1.5,None,2024-10-09 13h47.34.810128 +0530,
100,0,100,0,181.63734549999936,,181.61482140002772,5,181.63734549999936,181.63734549999936,0.012020600028336048,182.64419120003004,182.72876600001473,[0.10185185185185185],[-0.13796296296296295],[1],[0],[0],[1.102042699989397],['target'],1,001,2024-10-09_13h47.25.652,Vision search,2024.1.5,None,2024-10-09 13h47.34.810128 +0530,
101,0,101,0,182.76842770003714,,182.73137550003594,10,182.76842770003714,182.76842770003714,0.01779529999475926,183.77717650000704,184.84521070000483,[0.22037037037037038],[0.375],[1],[0],[0],[2.096114200016018],['target'],1,001,2024-10-09_13h47.25.652,Vision search,2024.1.5,None,2024-10-09 13h47.34.810128 +0530,
102,0,102,0,184.89866549998987,,184.8489214000292,10,184.89866549998987,184.89866549998987,0.028632600035052747,185.90999180002837,186.71083830000134,[-0.21944444444444444],[0.21203703703703702],[1],[0],[0],[1.8337064999504946],['target'],1,001,2024-10-09_13h47.25.652,Vision search,2024.1.5,None,2024-10-09 13h47.34.810128 +0530,
103,0,103,0,186.74651920003816,,186.71318700001575,10,186.74651920003816,186.74651920003816,0.01793620001990348,187.75980930001242,188.41089270001976,[-0.011111111111111112],[-0.11851851851851852],[1],[0],[0],[1.679926200013142],['target'],1,001,2024-10-09_13h47.25.652,Vision search,2024.1.5,None,2024-10-09 13h47.34.810128 +0530,
104,0,104,0,188.43044160003774,,188.41387560003204,5,188.43044160003774,188.43044160003774,0.00953999999910593,189.4426271999837,190.5943081000005,[0.412962962962963],[-0.03148148148148148],[1],[0],[0],[2.1709520000149496],['target'],1,001,2024-10-09_13h47.25.652,Vision search,2024.1.5,None,2024-10-09 13h47.34.810128 +0530,
105,0,105,0,190.6299580000341,,190.59876810002606,10,190.6299580000341,190.6299580000341,0.01980899996124208,191.64217519998783,192.24302090000128,[-0.02962962962962963],[-0.10092592592592593],[1],[0],[0],[1.6249021000112407],['target'],1,001,2024-10-09_13h47.25.652,Vision search,2024.1.5,None,2024-10-09 13h47.34.810128 +0530,
106,0,106,0,192.27941260003718,,192.245247200015,10,192.27941260003718,192.27941260003718,0.017323900014162064,193.29175760003272,195.17606100003468,[0.08703703703703704],[0.1388888888888889],[1],[0],[0],[2.9135690999682993],['target'],1,001,2024-10-09_13h47.25.652,Vision search,2024.1.5,None,2024-10-09 13h47.34.810128 +0530,
107,0,107,0,195.21145619999152,,195.1785014999914,10,195.21145619999152,195.21145619999152,0.017880600003991276,196.22472990001552,196.85886229999596,[-0.04722222222222222],[0.13796296296296295],[1],[0],[0],[1.6625357999582775],['target'],1,001,2024-10-09_13h47.25.652,Vision search,2024.1.5,None,2024-10-09 13h47.34.810128 +0530,
108,0,108,0,196.91513789998135,,196.86208920000354,10,196.91513789998135,196.91513789998135,0.02673559996765107,197.9240421000286,198.62510130001465,[-0.3175925925925926],[-0.4361111111111111],[1],[0],[0],[1.7366761000012048],['target'],1,001,2024-10-09_13h47.25.652,Vision search,2024.1.5,None,2024-10-09 13h47.34.810128 +0530,
109,0,109,0,198.66537729999982,,198.62790870002937,10,198.66537729999982,198.66537729999982,0.01920600002631545,199.67338550003478,200.5914142000256,[-0.325],[-0.08796296296296297],[1],[0],[0],[1.9445308999856934],['target'],1,001,2024-10-09_13h47.25.652,Vision search,2024.1.5,None,2024-10-09 13h47.34.810128 +0530,
110,0,110,0,200.6118016000255,,200.5940887000179,5,200.6118016000255,200.6118016000255,0.009564400010276586,201.62343690003036,202.2248684000224,[0.09537037037037037],[-0.2324074074074074],[1],[0],[0],[1.6210794000071473],['target'],1,001,2024-10-09_13h47.25.652,Vision search,2024.1.5,None,2024-10-09 13h47.34.810128 +0530,
111,0,111,0,202.26175750000402,,202.22843140002806,10,202.26175750000402,202.26175750000402,0.020033800043165684,203.27289120003115,204.90699350001523,[-0.47314814814814815],[0.017592592592592594],[1],[0],[0],[2.6588834999711253],['target'],1,001,2024-10-09_13h47.25.652,Vision search,2024.1.5,None,2024-10-09 13h47.34.810128 +0530,
112,0,112,0,204.94408180000028,,204.90997480001533,10,204.94408180000028,204.94408180000028,0.018946400028653443,205.9559309000033,207.30679990001954,[0.41388888888888886],[-0.05648148148148148],[1],[0],[0],[2.3781214999617077],['target'],1,001,2024-10-09_13h47.25.652,Vision search,2024.1.5,None,2024-10-09 13h47.34.810128 +0530,
113,0,113,0,207.35847560002003,,207.30965810001362,10,207.35847560002003,207.35847560002003,0.018646900018211454,208.37213109998265,209.22386299999198,[0.3333333333333333],[-0.2611111111111111],[1],[0],[0],[1.8954173000529408],['target'],1,001,2024-10-09_13h47.25.652,Vision search,2024.1.5,None,2024-10-09 13h47.34.810128 +0530,
114,0,114,0,209.27262629999314,,209.22833030001493,10,209.27262629999314,209.27262629999314,0.021401099977083504,210.28823050000938,210.5226097999839,[0.05925925925925926],[0.2861111111111111],[1],[0],[0],[1.273392100003548],['target'],1,001,2024-10-09_13h47.25.652,Vision search,2024.1.5,None,2024-10-09 13h47.34.810128 +0530,
115,0,115,0,210.543061400007,,210.52504640002735,5,210.543061400007,210.543061400007,0.009690100036095828,211.55438230000436,211.80648339999607,[-0.13055555555555556],[-0.22962962962962963],[1],[0],[0],[1.2716120000113733],['target'],1,001,2024-10-09_13h47.25.652,Vision search,2024.1.5,None,2024-10-09 13h47.34.810128 +0530,
116,0,116,0,211.83287939999718,,211.8113870000234,5,211.83287939999718,211.83287939999718,0.014576300047338009,212.8377072000294,214.07220719999168,[0.2759259259259259],[-0.39444444444444443],[1],[0],[0],[2.246793999976944],['target'],1,001,2024-10-09_13h47.25.652,Vision search,2024.1.5,None,2024-10-09 13h47.34.810128 +0530,
117,0,117,0,214.10213140002452,,214.0758000999922,5,214.10213140002452,214.10213140002452,0.01172250002855435,215.10383290000027,215.8560337999952,[0.049074074074074076],[-0.44351851851851853],[1],[0],[0],[1.7686897999956273],['target'],1,001,2024-10-09_13h47.25.652,Vision search,2024.1.5,None,2024-10-09 13h47.34.810128 +0530,
118,0,118,0,215.90738859999692,,215.8603662000387,10,215.90738859999692,215.90738859999692,0.027703700005076826,216.9198955000029,217.35549819999142,[0.14814814814814814],[0.3287037037037037],[1],[0],[0],[1.4675388000323437],['target'],1,001,2024-10-09_13h47.25.652,Vision search,2024.1.5,None,2024-10-09 13h47.34.810128 +0530,
119,0,119,0,217.37993230001302,,217.35959629999707,5,217.37993230001302,217.37993230001302,0.013643799989949912,218.38647520000814,218.68803830002435,[0.3037037037037037],[0.14351851851851852],[1],[0],[0],[1.3152355000493117],['target'],1,001,2024-10-09_13h47.25.652,Vision search,2024.1.5,None,2024-10-09 13h47.34.810128 +0530,
120,0,120,0,218.72898900002474,,218.69129520002753,10,218.72898900002474,218.72898900002474,0.019158100010827184,219.7361589000211,220.02168579999125,[0.09907407407407408],[0.3925925925925926],[1],[0],[0],[1.311395500029903],['target'],1,001,2024-10-09_13h47.25.652,Vision search,2024.1.5,None,2024-10-09 13h47.34.810128 +0530,
121,0,121,0,220.04912089998834,,220.0256817000336,5,220.04912089998834,220.04912089998834,0.012347000010777265,221.05272520001745,221.58764189999783,[0.06481481481481481],[0.03518518518518519],[1],[0],[0],[1.5499275000183843],['target'],1,001,2024-10-09_13h47.25.652,Vision search,2024.1.5,None,2024-10-09 13h47.34.810128 +0530,
122,0,122,0,221.6358510000282,,221.59183420002228,10,221.6358510000282,221.6358510000282,0.02074830001220107,222.63576289999764,223.43665079999482,[-0.38333333333333336],[-0.26944444444444443],[1],[0],[0],[1.824501600000076],['target'],1,001,2024-10-09_13h47.25.652,Vision search,2024.1.5,None,2024-10-09 13h47.34.810128 +0530,
123,0,123,0,223.4819249000284,,223.43970350001473,10,223.4819249000284,223.4819249000284,0.019689499982632697,224.48519119998673,225.81920999998692,[-0.3527777777777778],[0.23981481481481481],[1],[0],[0],[2.3601267999620177],['target'],1,001,2024-10-09_13h47.25.652,Vision search,2024.1.5,None,2024-10-09 13h47.34.810128 +0530,
124,0,124,0,225.86243000003742,,225.82189690001542,10,225.86243000003742,225.86243000003742,0.018184099986683577,226.86867150000762,227.80398580001201,[-0.2222222222222222],[-0.15648148148148147],[1],[0],[0],[1.9641310999868438],['target'],1,001,2024-10-09_13h47.25.652,Vision search,2024.1.5,None,2024-10-09 13h47.34.810128 +0530,
125,0,125,0,227.83722670003772,,227.80971290002344,5,227.83722670003772,227.83722670003772,0.016406700015068054,228.85096619999968,229.36987170000793,[0.049074074074074076],[0.44537037037037036],[1],[0],[0],[1.5438924000482075],['target'],1,001,2024-10-09_13h47.25.652,Vision search,2024.1.5,None,2024-10-09 13h47.34.810128 +0530,
126,0,126,0,229.40855460002786,,229.3750013000099,5,229.40855460002786,229.40855460002786,0.013200899993535131,230.41718099999707,231.15178710001055,[-0.2796296296296296],[-0.31666666666666665],[1],[0],[0],[1.7642163000418805],['target'],1,001,2024-10-09_13h47.25.652,Vision search,2024.1.5,None,2024-10-09 13h47.34.810128 +0530,
127,0,127,0,231.1885930999997,,231.1546454000054,10,231.1885930999997,231.1885930999997,0.019344800035469234,232.20025320001878,233.8510876999935,[0.058333333333333334],[-0.07592592592592592],[1],[0],[0],[2.6773369000293314],['target'],1,001,2024-10-09_13h47.25.652,Vision search,2024.1.5,None,2024-10-09 13h47.34.810128 +0530,
128,0,128,0,233.89223649998894,,233.85431389999576,10,233.89223649998894,233.89223649998894,0.020128600008320063,234.89958070003195,235.85056270001223,[0.15462962962962962],[0.41944444444444445],[1],[0],[0],[1.9764836999820545],['target'],1,001,2024-10-09_13h47.25.652,Vision search,2024.1.5,None,2024-10-09 13h47.34.810128 +0530,
129,0,129,0,235.8730036999914,,235.85299210000085,5,235.8730036999914,235.8730036999914,0.010581200011074543,236.88365109998267,237.95048120000865,[-0.18333333333333332],[-0.17037037037037037],[1],[0],[0],[2.0869757999898866],['target'],1,001,2024-10-09_13h47.25.652,Vision search,2024.1.5,None,2024-10-09 13h47.34.810128 +0530,
130,0,130,0,237.97547280002618,,237.95379210001556,5,237.97547280002618,237.97547280002618,0.010092099953908473,238.98181770002702,239.2012137999991,[-0.14629629629629629],[0.34074074074074073],[1],[0],[0],[1.2372654000064358],['target'],1,001,2024-10-09_13h47.25.652,Vision search,2024.1.5,None,2024-10-09 13h47.34.810128 +0530,
131,0,131,0,239.2386264000088,,239.20606220001355,5,239.2386264000088,239.2386264000088,0.01287530001718551,240.24863709998317,241.33377949998248,[-0.22037037037037038],[0.1037037037037037],[1],[0],[0],[2.115053399989847],['target'],1,001,2024-10-09_13h47.25.652,Vision search,2024.1.5,None,2024-10-09 13h47.34.810128 +0530,
132,0,132,0,241.36328829999547,,241.33927150000818,5,241.36328829999547,241.36328829999547,0.014016099972650409,242.36468130000867,242.93250510003418,[-0.48703703703703705],[0.4685185185185185],[1],[0],[0],[1.5798716000281274],['target'],1,001,2024-10-09_13h47.25.652,Vision search,2024.1.5,None,2024-10-09 13h47.34.810128 +0530,
133,0,133,0,242.95226250000997,,242.9352491000318,5,242.95226250000997,242.95226250000997,0.009939900017343462,243.96450719999848,245.03232440003194,[0.2777777777777778],[-0.022222222222222223],[1],[0],[0],[2.087199400004465],['target'],1,001,2024-10-09_13h47.25.652,Vision search,2024.1.5,None,2024-10-09 13h47.34.810128 +0530,
134,0,134,0,245.06232050003018,,245.03586320002796,5,245.06232050003018,245.06232050003018,0.011330900015309453,246.06403880001744,246.61672380001983,[0.2388888888888889],[-0.24166666666666667],[1],[0],[0],[1.569300299976021],['target'],1,001,2024-10-09_13h47.25.652,Vision search,2024.1.5,None,2024-10-09 13h47.34.810128 +0530,
135,0,135,0,246.6439107999904,,246.62187030003406,5,246.6439107999904,246.6439107999904,0.01648569997632876,247.64688499999465,248.58118480001576,[0.18611111111111112],[0.29907407407407405],[1],[0],[0],[1.9434730000211857],['target'],1,001,2024-10-09_13h47.25.652,Vision search,2024.1.5,None,2024-10-09 13h47.34.810128 +0530,
136,0,136,0,248.61257170001045,,248.58444970002165,5,248.61257170001045,248.61257170001045,0.01237719994969666,249.61318029998802,250.54811159998644,[-0.48518518518518516],[0.05555555555555555],[1],[0],[0],[1.951688400004059],['target'],1,001,2024-10-09_13h47.25.652,Vision search,2024.1.5,None,2024-10-09 13h47.34.810128 +0530,
137,0,137,0,250.59467810002388,,250.55201270000543,10,250.59467810002388,250.59467810002388,0.019692800007760525,251.5962629999849,253.04698580002878,[-0.2175925925925926],[-0.4666666666666667],[1],[0],[0],[2.475616900017485],['target'],1,001,2024-10-09_13h47.25.652,Vision search,2024.1.5,None,2024-10-09 13h47.34.810128 +0530,
138,0,138,0,253.0674401000142,,253.05024429998593,5,253.0674401000142,253.0674401000142,0.011948300001677126,254.07886790001066,254.7465641000308,[0.024074074074074074],[-0.21481481481481482],[1],[0],[0],[1.68482490000315],['target'],1,001,2024-10-09_13h47.25.652,Vision search,2024.1.5,None,2024-10-09 13h47.34.810128 +0530,
139,0,139,0,254.77894510002807,,254.7484135000268,5,254.77894510002807,254.77894510002807,0.009932500019203871,255.77868079999462,256.4645317000104,[-0.006481481481481481],[0.08425925925925926],[1],[0],[0],[1.7056642000097781],['target'],1,001,2024-10-09_13h47.25.652,Vision search,2024.1.5,None,2024-10-09 13h47.34.810128 +0530,
140,0,140,0,256.496505099989,,256.4698562999838,5,256.496505099989,256.496505099989,0.01722779998090118,257.51181019999785,258.06298580003204,[-0.29074074074074074],[-0.21296296296296297],[1],[0],[0],[1.57650000002468],['target'],1,001,2024-10-09_13h47.25.652,Vision search,2024.1.5,None,2024-10-09 13h47.34.810128 +0530,
141,0,141,0,258.1003233999945,,258.06663980003214,10,258.1003233999945,258.1003233999945,0.01985809998586774,259.11093989998335,260.29509460000554,[-0.35555555555555557],[-0.2814814814814815],[1],[0],[0],[2.209084400034044],['target'],1,001,2024-10-09_13h47.25.652,Vision search,2024.1.5,None,2024-10-09 13h47.34.810128 +0530,
142,0,142,0,260.3193968000123,,260.29785959998844,5,260.3193968000123,260.3193968000123,0.010429099958855659,261.32730080001056,262.7784724000376,[0.30277777777777776],[-0.11481481481481481],[1],[0],[0],[2.4703757000388578],['target'],1,001,2024-10-09_13h47.25.652,Vision search,2024.1.5,None,2024-10-09 13h47.34.810128 +0530,
143,0,143,0,262.80154200003017,,262.7815689999843,5,262.80154200003017,262.80154200003017,0.010618900007102638,263.81017960002646,264.61198769998737,[-0.2814814814814815],[0.22592592592592592],[1],[0],[0],[1.819796200026758],['target'],1,001,2024-10-09_13h47.25.652,Vision search,2024.1.5,None,2024-10-09 13h47.34.810128 +0530,
144,0,144,0,264.6579001999926,,264.61698400002206,10,264.6579001999926,264.6579001999926,0.027530299965292215,265.6596833000076,266.54411820002133,[-0.37592592592592594],[0.03425925925925926],[1],[0],[0],[1.9001815000083297],['target'],1,001,2024-10-09_13h47.25.652,Vision search,2024.1.5,None,2024-10-09 13h47.34.810128 +0530,
145,0,145,0,266.5701751000015,,266.5472652000026,5,266.5701751000015,266.5701751000015,0.011318799981381744,267.57626960001653,268.52815259998897,[-0.44166666666666665],[0.041666666666666664],[1],[0],[0],[1.9694504999788478],['target'],1,001,2024-10-09_13h47.25.652,Vision search,2024.1.5,None,2024-10-09 13h47.34.810128 +0530,
146,0,146,0,268.5629849000252,,268.5330757999909,10,268.5629849000252,268.5629849000252,0.021827700024005026,269.575680000009,270.69305030000396,[0.33055555555555555],[-0.28055555555555556],[1],[0],[0],[2.138908499968238],['target'],1,001,2024-10-09_13h47.25.652,Vision search,2024.1.5,None,2024-10-09 13h47.34.810128 +0530,
147,0,147,0,270.7159478000249,,270.6948293999885,5,270.7159478000249,270.7159478000249,0.00929409998934716,271.72538260003785,273.50930209999206,[0.20185185185185187],[0.475],[1],[0],[0],[2.805144999991171],['target'],1,001,2024-10-09_13h47.25.652,Vision search,2024.1.5,None,2024-10-09 13h47.34.810128 +0530,
148,0,148,0,273.5579355999944,,273.5126978000044,10,273.5579355999944,273.5579355999944,0.020375399966724217,274.55772089998936,275.625148000021,[0.3148148148148148],[0.013888888888888888],[1],[0],[0],[2.092521799961105],['target'],1,001,2024-10-09_13h47.25.652,Vision search,2024.1.5,None,2024-10-09 13h47.34.810128 +0530,
149,0,149,0,275.662040300027,,275.62833119998686,10,275.662040300027,275.662040300027,0.018386300012934953,276.67400340002496,277.892407700012,[0.03888888888888889],[-0.2833333333333333],[1],[0],[0],[2.2456401999806985],['target'],1,001,2024-10-09_13h47.25.652,Vision search,2024.1.5,None,2024-10-09 13h47.34.810128 +0530,
150,0,150,0,277.946014199988,,277.89672509999946,10,277.946014199988,277.946014199988,0.029205599974375218,278.95668489998206,279.3582073000143,[0.08425925925925926],[0.03148148148148148],[1],[0],[0],[1.4327219999977387],['target'],1,001,2024-10-09_13h47.25.652,Vision search,2024.1.5,None,2024-10-09 13h47.34.810128 +0530,
151,0,151,0,279.39147010003217,,279.36180660000537,5,279.39147010003217,279.39147010003217,0.01157119998242706,280.4066254000063,280.92478430003393,[-0.23796296296296296],[-0.29444444444444445],[1],[0],[0],[1.5516846000100486],['target'],1,001,2024-10-09_13h47.25.652,Vision search,2024.1.5,None,2024-10-09 13h47.34.810128 +0530,
152,0,152,0,280.9497398000094,,280.9287286000326,5,280.9497398000094,280.9497398000094,0.011550099996384233,281.9563858000329,282.4575660999981,[0.3574074074074074],[-0.3675925925925926],[1],[0],[0],[1.5175228000152856],['target'],1,001,2024-10-09_13h47.25.652,Vision search,2024.1.5,None,2024-10-09 13h47.34.810128 +0530,
153,0,153,0,282.49486229999457,,282.46085670002503,10,282.49486229999457,282.49486229999457,0.019531700003426522,283.50612289999845,284.80736810003873,[-0.287962962962963],[-0.2796296296296296],[1],[0],[0],[2.3272190999705344],['target'],1,001,2024-10-09_13h47.25.652,Vision search,2024.1.5,None,2024-10-09 13h47.34.810128 +0530,
154,0,154,0,284.84903230000054,,284.81096050003543,10,284.84903230000054,284.84903230000054,0.019976999959908426,285.8554105000221,286.10666470002616,[-0.2675925925925926],[0.003703703703703704],[1],[0],[0],[1.2761334999813698],['target'],1,001,2024-10-09_13h47.25.652,Vision search,2024.1.5,None,2024-10-09 13h47.34.810128 +0530,
155,0,155,0,286.12520380003843,,286.1092115000356,5,286.12520380003843,286.12520380003843,0.00965419999556616,287.1385171000147,288.39083550003124,[0.4935185185185185],[-0.2972222222222222],[1],[0],[0],[2.271983699989505],['target'],1,001,2024-10-09_13h47.25.652,Vision search,2024.1.5,None,2024-10-09 13h47.34.810128 +0530,
156,0,156,0,288.4111350000021,,288.39433239999926,5,288.4111350000021,288.4111350000021,0.012148599955253303,289.42116420000093,290.47260000003735,[-0.29259259259259257],[-0.15092592592592594],[1],[0],[0],[2.0663969999877736],['target'],1,001,2024-10-09_13h47.25.652,Vision search,2024.1.5,None,2024-10-09 13h47.34.810128 +0530,
157,0,157,0,290.4961955000181,,290.4763455000357,5,290.4961955000181,290.4961955000181,0.013579200021922588,291.50422589998925,292.0222029000288,[-0.4444444444444444],[0.36203703703703705],[1],[0],[0],[1.5325247999862768],['target'],1,001,2024-10-09_13h47.25.652,Vision search,2024.1.5,None,2024-10-09 13h47.34.810128 +0530,
158,0,158,0,292.043223900022,,292.02609030000167,5,292.043223900022,292.043223900022,0.011968300037551671,293.0541612000088,293.6053591000382,[-0.4444444444444444],[0.425],[1],[0],[0],[1.5676819999935105],['target'],1,001,2024-10-09_13h47.25.652,Vision search,2024.1.5,None,2024-10-09 13h47.34.810128 +0530,
159,0,159,0,293.6245949000004,,293.60861290001776,5,293.6245949000004,293.6245949000004,0.010721199971158057,294.63689399999566,295.05624880001415,[0.32407407407407407],[-0.019444444444444445],[1],[0],[0],[1.4367882999940775],['target'],1,001,2024-10-09_13h47.25.652,Vision search,2024.1.5,None,2024-10-09 13h47.34.810128 +0530,
160,0,160,0,295.10638120002113,,295.0612448999891,10,295.10638120002113,295.10638120002113,0.02990470000077039,296.1200430000317,296.7211057000095,[-0.1935185185185185],[-0.13703703703703704],[1],[0],[0],[1.6306096000480466],['target'],1,001,2024-10-09_13h47.25.652,Vision search,2024.1.5,None,2024-10-09 13h47.34.810128 +0530,
161,0,161,0,296.7532206000178,,296.723119900038,10,296.7532206000178,296.7532206000178,0.017552900011651218,297.75292679999257,298.0874342999887,[0.025925925925925925],[0.22407407407407406],[1],[0],[0],[1.3468308000010438],['target'],1,001,2024-10-09_13h47.25.652,Vision search,2024.1.5,None,2024-10-09 13h47.34.810128 +0530,
162,0,162,0,298.1303466000245,,298.09021390002454,10,298.1303466000245,298.1303466000245,0.018736800004262477,299.13599730003625,301.4035861000302,[0.5083333333333333],[0.49722222222222223],[1],[0],[0],[3.2947082999744453],[],1,001,2024-10-09_13h47.25.652,Vision search,2024.1.5,None,2024-10-09 13h47.34.810128 +0530,
163,0,163,0,301.43511030002264,,301.40712230000645,10,301.43511030002264,301.43511030002264,0.02016610000282526,302.4353948000353,304.2524915999966,[-0.27314814814814814],[0.4324074074074074],[1],[0],[0],[2.825586499995552],['target'],1,001,2024-10-09_13h47.25.652,Vision search,2024.1.5,None,2024-10-09 13h47.34.810128 +0530,
164,0,164,0,304.2820689000073,,304.25473510002485,10,304.2820689000073,304.2820689000073,0.019082300015725195,305.28469170001335,307.18579850002425,[-0.46574074074074073],[-0.4527777777777778],[1],[0],[0],[2.9119226000038907],['target'],1,001,2024-10-09_13h47.25.652,Vision search,2024.1.5,None,2024-10-09 13h47.34.810128 +0530,
165,0,165,0,307.20580609998433,,307.18937510001706,5,307.20580609998433,307.20580609998433,0.01134910003747791,308.2178447000333,308.6022686000215,[-0.1037037037037037],[-0.28888888888888886],[1],[0],[0],[1.4018327999510802],['target'],1,001,2024-10-09_13h47.25.652,Vision search,2024.1.5,None,2024-10-09 13h47.34.810128 +0530,
166,0,166,0,308.6327100000344,,308.6054483000189,10,308.6327100000344,308.6327100000344,0.018765499989967793,309.63384289998794,310.03462809999473,[-0.20925925925925926],[-0.07314814814814814],[1],[0],[0],[1.4107095999643207],['target'],1,001,2024-10-09_13h47.25.652,Vision search,2024.1.5,None,2024-10-09 13h47.34.810128 +0530,
167,0,167,0,310.0631645999965,,310.0373229000252,10,310.0631645999965,310.0631645999965,0.018086299998685718,311.06721439998364,311.9179771000054,[0.27037037037037037],[-0.21296296296296297],[1],[0],[0],[1.8627286999835633],['target'],1,001,2024-10-09_13h47.25.652,Vision search,2024.1.5,None,2024-10-09 13h47.34.810128 +0530,
168,0,168,0,311.9402349999873,,311.9204326000181,5,311.9402349999873,311.9402349999873,0.009701900009531528,312.9498159000068,313.65194599999813,[-0.24444444444444444],[0.2833333333333333],[1],[0],[0],[1.7216680999845266],['target'],1,001,2024-10-09_13h47.25.652,Vision search,2024.1.5,None,2024-10-09 13h47.34.810128 +0530,
169,0,169,0,313.6832892000093,,313.65748039999744,5,313.6832892000093,313.6832892000093,0.016041899973060936,314.682884800015,315.40062259999104,[0.2861111111111111],[-0.2824074074074074],[1],[0],[0],[1.7275709999958053],['target'],1,001,2024-10-09_13h47.25.652,Vision search,2024.1.5,None,2024-10-09 13h47.34.810128 +0530,
170,0,170,0,315.4248519000248,,315.40493289998267,5,315.4248519000248,315.4248519000248,0.012657499988563359,316.4323624999961,316.85059470002307,[0.30462962962962964],[-0.37407407407407406],[1],[0],[0],[1.4330850999685936],['target'],1,001,2024-10-09_13h47.25.652,Vision search,2024.1.5,None,2024-10-09 13h47.34.810128 +0530,
171,0,171,0,316.884526800015,,316.85447359998943,5,316.884526800015,316.884526800015,0.012569200014695525,317.8984993000049,318.8333908999921,[-0.49537037037037035],[-0.19814814814814816],[1],[0],[0],[1.9666354000219144],['target'],1,001,2024-10-09_13h47.25.652,Vision search,2024.1.5,None,2024-10-09 13h47.34.810128 +0530,
172,0,172,0,318.8882486000075,,318.83685920003336,10,318.8882486000075,318.8882486000075,0.019683800055645406,319.89892449998297,320.8990880000056,[-0.26666666666666666],[-0.3111111111111111],[1],[0],[0],[2.0429192999727093],['target'],1,001,2024-10-09_13h47.25.652,Vision search,2024.1.5,None,2024-10-09 13h47.34.810128 +0530,
173,0,173,0,320.94176449999213,,320.9010583999916,10,320.94176449999213,320.94176449999213,0.0175110999844037,321.94759430002887,324.93201019999105,[0.14537037037037037],[-0.4462962962962963],[1],[0],[0],[4.0135991999995895],[],1,001,2024-10-09_13h47.25.652,Vision search,2024.1.5,None,2024-10-09 13h47.34.810128 +0530,
174,0,174,0,324.9522485000198,,324.93372430000454,5,324.9522485000198,324.9522485000198,0.008962499967310578,325.96340740000596,327.0654836000176,[-0.175],[-0.2175925925925926],[1],[0],[0],[2.122742300038226],['target'],1,001,2024-10-09_13h47.25.652,Vision search,2024.1.5,None,2024-10-09 13h47.34.810128 +0530,
175,0,175,0,327.08593090000795,,327.0688952000346,5,327.08593090000795,327.08593090000795,0.011431100021582097,328.09658660000423,328.83195610000985,[0.4638888888888889],[0.42685185185185187],[1],[0],[0],[1.7517089000320993],['target'],1,001,2024-10-09_13h47.25.652,Vision search,2024.1.5,None,2024-10-09 13h47.34.810128 +0530,
176,0,176,0,328.87988020002376,,328.8364671000163,10,328.87988020002376,328.87988020002376,0.02106980001553893,329.8793376000249,330.8974490999826,[-0.23703703703703705],[0.04722222222222222],[1],[0],[0],[2.040674099989701],['target'],1,001,2024-10-09_13h47.25.652,Vision search,2024.1.5,None,2024-10-09 13h47.34.810128 +0530,
177,0,177,0,330.9352178000263,,330.90179149998585,10,330.9352178000263,330.9352178000263,0.022839899989776313,331.9460607999936,332.646844300034,[0.11203703703703703],[0.3277777777777778],[1],[0],[0],[1.7226875000051223],['target'],1,001,2024-10-09_13h47.25.652,Vision search,2024.1.5,None,2024-10-09 13h47.34.810128 +0530,
178,0,178,0,332.69180560001405,,332.64993960002903,10,332.69180560001405,332.69180560001405,0.01907260000007227,333.69529190001776,334.0300328999874,[-0.35833333333333334],[0.33425925925925926],[1],[0],[0],[1.361071899998933],['target'],1,001,2024-10-09_13h47.25.652,Vision search,2024.1.5,None,2024-10-09 13h47.34.810128 +0530,
179,0,179,0,334.0619847000344,,334.03367959999014,5,334.0619847000344,334.0619847000344,0.01724849996389821,335.0617205000017,336.08016650000354,[-0.005555555555555556],[-0.425],[1],[0],[0],[2.0295439999899827],['target'],1,001,2024-10-09_13h47.25.652,Vision search,2024.1.5,None,2024-10-09 13h47.34.810128 +0530,
180,0,180,0,336.1307525000302,,336.08499090000987,10,336.1307525000302,336.1307525000302,0.021354999975301325,337.14436299999943,338.44539030001033,[0.12777777777777777],[0.4638888888888889],[1],[0],[0],[2.339584500005003],['target'],1,001,2024-10-09_13h47.25.652,Vision search,2024.1.5,None,2024-10-09 13h47.34.810128 +0530,
181,0,181,0,338.51864140003454,,338.44856270001037,5,338.51864140003454,338.51864140003454,0.014449599955696613,339.5274109999882,339.8296191000263,[0.46944444444444444],[0.37777777777777777],[1],[0],[0],[1.3665369999944232],['target'],1,001,2024-10-09_13h47.25.652,Vision search,2024.1.5,None,2024-10-09 13h47.34.810128 +0530,
182,0,182,0,339.88531169999624,,339.8340704999864,10,339.88531169999624,339.88531169999624,0.02704800001811236,340.8936801000382,341.34531669999706,[0.4824074074074074],[-0.06759259259259259],[1],[0],[0],[1.4846500999992713],['target'],1,001,2024-10-09_13h47.25.652,Vision search,2024.1.5,None,2024-10-09 13h47.34.810128 +0530,
183,0,183,0,341.37891259999014,,341.3505586999818,5,341.37891259999014,341.37891259999014,0.016509000037331134,342.39407959999517,342.9281571999891,[0.40555555555555556],[0.46574074074074073],[1],[0],[0],[1.5616383999586105],['target'],1,001,2024-10-09_13h47.25.652,Vision search,2024.1.5,None,2024-10-09 13h47.34.810128 +0530,
184,0,184,0,342.950461200031,,342.9309382000356,5,342.950461200031,342.950461200031,0.009779800020623952,343.9595682999934,344.5944573000306,[-0.04259259259259259],[-0.38981481481481484],[1],[0],[0],[1.6537861000397243],['target'],1,001,2024-10-09_13h47.25.652,Vision search,2024.1.5,None,2024-10-09 13h47.34.810128 +0530,
185,0,185,0,344.61863520002225,,344.5973868999863,5,344.61863520002225,344.61863520002225,0.010243199998512864,345.6265417999821,346.09451100003207,[0.07037037037037037],[-0.32037037037037036],[1],[0],[0],[1.4867665999918245],['target'],1,001,2024-10-09_13h47.25.652,Vision search,2024.1.5,None,2024-10-09 13h47.34.810128 +0530,
186,0,186,0,346.1399357999908,,346.09957540000323,10,346.1399357999908,346.1399357999908,0.021371400041971356,347.1423808999825,347.3440006999881,[0.005555555555555556],[-0.13240740740740742],[1],[0],[0],[1.2231987999984995],['target'],1,001,2024-10-09_13h47.25.652,Vision search,2024.1.5,None,2024-10-09 13h47.34.810128 +0530,
187,0,187,0,347.3664258000208,,347.3472567999852,5,347.3664258000208,347.3664258000208,0.012348700023721904,348.375612200005,349.1271005999879,[-0.08611111111111111],[-0.33425925925925926],[1],[0],[0],[1.7677328999852762],['target'],1,001,2024-10-09_13h47.25.652,Vision search,2024.1.5,None,2024-10-09 13h47.34.810128 +0530,
188,0,188,0,349.15069400001084,,349.1303408999811,5,349.15069400001084,349.15069400001084,0.011307200009468943,350.15833619999466,351.0101460000151,[0.39351851851851855],[0.10555555555555556],[1],[0],[0],[1.8686580000212416],['target'],1,001,2024-10-09_13h47.25.652,Vision search,2024.1.5,None,2024-10-09 13h47.34.810128 +0530,
189,0,189,0,351.04932240000926,,351.0140578999999,10,351.04932240000926,351.04932240000926,0.02076330001000315,352.05827700003283,353.37639470002614,[-0.3074074074074074],[0.11481481481481481],[1],[0],[0],[2.341683299979195],['target'],1,001,2024-10-09_13h47.25.652,Vision search,2024.1.5,None,2024-10-09 13h47.34.810128 +0530,
190,0,190,0,353.42786440002965,,353.38068509998266,10,353.42786440002965,353.42786440002965,0.020934299973305315,354.4410666000331,355.7751719999942,[0.2962962962962963],[0.03888888888888889],[1],[0],[0],[2.3740759000065736],['target'],1,001,2024-10-09_13h47.25.652,Vision search,2024.1.5,None,2024-10-09 13h47.34.810128 +0530,
191,0,191,0,355.79667690000497,,355.77730459999293,5,355.79667690000497,355.79667690000497,0.008717299962881953,356.80727019999176,356.94192750001093,[0.25],[0.26296296296296295],[1],[0],[0],[1.1558412000304088],['target'],1,001,2024-10-09_13h47.25.652,Vision search,2024.1.5,None,2024-10-09 13h47.34.810128 +0530,
192,0,192,0,356.9833035999909,,356.94578559999354,10,356.9833035999909,356.9833035999909,0.02015290001872927,357.99009089998435,359.3745200000121,[-0.33240740740740743],[0.4046296296296296],[1],[0],[0],[2.4089946000021882],['target'],1,001,2024-10-09_13h47.25.652,Vision search,2024.1.5,None,2024-10-09 13h47.34.810128 +0530,
193,0,193,0,359.4132880999823,,359.37734140001703,10,359.4132880999823,359.4132880999823,0.01905930001521483,360.42294030002085,361.0076867000316,[0.3074074074074074],[0.2037037037037037],[1],[0],[0],[1.6113907999824733],['target'],1,001,2024-10-09_13h47.25.652,Vision search,2024.1.5,None,2024-10-09 13h47.34.810128 +0530,
194,0,194,0,361.05723560001934,,361.0117685000296,10,361.05723560001934,361.05723560001934,0.024526799970772117,362.0724573000334,362.7078848000383,[0.12962962962962962],[0.43333333333333335],[1],[0],[0],[1.671698899997864],['target'],1,001,2024-10-09_13h47.25.652,Vision search,2024.1.5,None,2024-10-09 13h47.34.810128 +0530,
195,0,195,0,362.7318117999821,,362.7118731000228,5,362.7318117999821,362.7318117999821,0.012222299992572516,363.7389477000106,364.47391120000975,[-0.43148148148148147],[-0.26944444444444443],[1],[0],[0],[1.750118400028441],['target'],1,001,2024-10-09_13h47.25.652,Vision search,2024.1.5,None,2024-10-09 13h47.34.810128 +0530,
196,0,196,0,364.51063139998587,,364.47731630003545,10,364.51063139998587,364.51063139998587,0.020047999976668507,365.52177089999896,366.24038350000046,[-0.41203703703703703],[-0.34814814814814815],[1],[0],[0],[1.7431139000109397],['target'],1,001,2024-10-09_13h47.25.652,Vision search,2024.1.5,None,2024-10-09 13h47.34.810128 +0530,
197,0,197,0,366.28574780002236,,366.24409260001266,10,366.28574780002236,366.28574780002236,0.02026420005131513,367.2882946000318,369.08902270003455,[0.4027777777777778],[-0.13796296296296295],[1],[0],[0],[2.8252405999810435],['target'],1,001,2024-10-09_13h47.25.652,Vision search,2024.1.5,None,2024-10-09 13h47.34.810128 +0530,
198,0,198,0,369.1058925000252,,369.0910564000369,5,369.1058925000252,369.1058925000252,0.008607800002209842,370.12138650001725,371.3055716000381,[-0.07592592592592592],[-0.44166666666666665],[1],[0],[0],[2.205835799977649],['target'],1,001,2024-10-09_13h47.25.652,Vision search,2024.1.5,None,2024-10-09 13h47.34.810128 +0530,
199,0,199,0,371.3281273000175,,371.3094457000261,5,371.3281273000175,371.3281273000175,0.01120529999025166,372.33709440001985,373.4550298000104,[0.49166666666666664],[-0.21388888888888888],[1],[0],[0],[2.1346122000250034],['target'],1,001,2024-10-09_13h47.25.652,Vision search,2024.1.5,None,2024-10-09 13h47.34.810128 +0530,
