trials.thisRepN,trials.thisTrialN,trials.thisN,trials.thisIndex,thisRow.t,notes,trial.started,num_distr,fixation.started,target.started,mouse.started,fixation.stopped,trial.stopped,mouse.x,mouse.y,mouse.leftButton,mouse.midButton,mouse.rightButton,mouse.time,mouse.clicked_name,participant,session,date,expName,psychopyVersion,frameRate,expStart,
0,0,0,0,0.03209660004358739,,0.004409000044688582,10,0.03209660004358739,0.03209660004358739,0.022590699954889715,1.0322496000444517,4.615899300028104,[-0.3194444444444444],[-0.32037037037037036],[1],[0],[0],[4.592703799949959],['target'],217354,001,2024-10-09_14h06.20.321,Vision search,2024.1.5,None,2024-10-09 14h06.25.754059 +0530,
1,0,1,0,4.643488300032914,,4.618547500052955,10,4.643488300032914,4.643488300032914,0.017304399982094765,5.648324600013439,6.198633500025608,[0.18703703703703703],[-0.35555555555555557],[1],[0],[0],[1.5628089000238106],['target'],217354,001,2024-10-09_14h06.20.321,Vision search,2024.1.5,None,2024-10-09 14h06.25.754059 +0530,
2,0,2,0,6.228559500013944,,6.2013769000186585,10,6.228559500013944,6.228559500013944,0.018803499988280237,7.231099300028291,7.981593900010921,[-0.1398148148148148],[0.03981481481481482],[1],[0],[0],[1.7616238000337034],['target'],217354,001,2024-10-09_14h06.20.321,Vision search,2024.1.5,None,2024-10-09 14h06.25.754059 +0530,
3,0,3,0,7.998974300047848,,7.983947500004433,5,7.998974300047848,7.998974300047848,0.00900810002349317,9.013761800015345,9.349793100031093,[0.32222222222222224],[-0.2101851851851852],[1],[0],[0],[1.3566872999654151],['target'],217354,001,2024-10-09_14h06.20.321,Vision search,2024.1.5,None,2024-10-09 14h06.25.754059 +0530,
4,0,4,0,9.38697770005092,,9.35566340002697,10,9.38697770005092,9.38697770005092,0.023876500024925917,10.396805400028825,10.665276300045662,[0.15925925925925927],[0.2935185185185185],[1],[0],[0],[1.2861614000285044],['target'],217354,001,2024-10-09_14h06.20.321,Vision search,2024.1.5,None,2024-10-09 14h06.25.754059 +0530,
5,0,5,0,10.692923600028735,,10.66916270001093,5,10.692923600028735,10.692923600028735,0.015432999993208796,11.696700300031807,11.881001900008414,[-0.02962962962962963],[0.13518518518518519],[1],[0],[0],[1.196829600026831],['target'],217354,001,2024-10-09_14h06.20.321,Vision search,2024.1.5,None,2024-10-09 14h06.25.754059 +0530,
6,0,6,0,11.91101650003111,,11.884252200019546,10,11.91101650003111,11.91101650003111,0.01909939997131005,12.912919800030068,13.747019100002944,[0.3333333333333333],[-0.09351851851851851],[1],[0],[0],[1.844005000020843],['target'],217354,001,2024-10-09_14h06.20.321,Vision search,2024.1.5,None,2024-10-09 14h06.25.754059 +0530,
7,0,7,0,13.789811000053305,,13.749869799998123,10,13.789811000053305,13.789811000053305,0.028921799967065454,14.796064000052866,16.713304400036577,[-0.2962962962962963],[-0.475],[1],[0],[0],[2.9347455000388436],['target'],217354,001,2024-10-09_14h06.20.321,Vision search,2024.1.5,None,2024-10-09 14h06.25.754059 +0530,
8,0,8,0,16.730309600010514,,16.715796200034674,5,16.730309600010514,16.730309600010514,0.009351500018965453,17.745230500004254,18.213485400017817,[0.26296296296296295],[-0.058333333333333334],[1],[0],[0],[1.488468399969861],['target'],217354,001,2024-10-09_14h06.20.321,Vision search,2024.1.5,None,2024-10-09 14h06.25.754059 +0530,
9,0,9,0,18.247218600008637,,18.216782300034538,10,18.247218600008637,18.247218600008637,0.020139100030064583,19.261502500041388,20.396741000004113,[0.35555555555555557],[-0.4185185185185185],[1],[0],[0],[2.1598884999984875],['target'],217354,001,2024-10-09_14h06.20.321,Vision search,2024.1.5,None,2024-10-09 14h06.25.754059 +0530,
10,0,10,0,20.418830200040247,,20.4011011000257,5,20.418830200040247,20.418830200040247,0.01276860001962632,21.427903900039382,21.745998400030658,[-0.25833333333333336],[0.20833333333333334],[1],[0],[0],[1.332556499983184],['target'],217354,001,2024-10-09_14h06.20.321,Vision search,2024.1.5,None,2024-10-09 14h06.25.754059 +0530,
11,0,11,0,21.776543400017545,,21.74935330002336,10,21.776543400017545,21.776543400017545,0.01927879999857396,22.77749980002409,23.228594700049143,[-0.3527777777777778],[-0.03333333333333333],[1],[0],[0],[1.4602521999622695],['target'],217354,001,2024-10-09_14h06.20.321,Vision search,2024.1.5,None,2024-10-09 14h06.25.754059 +0530,
12,0,12,0,23.248004499997478,,23.23148450005101,5,23.248004499997478,23.248004499997478,0.010834800021257252,24.26053359999787,24.762811699998565,[-0.016666666666666666],[-0.13703703703703704],[1],[0],[0],[1.520614899985958],['target'],217354,001,2024-10-09_14h06.20.321,Vision search,2024.1.5,None,2024-10-09 14h06.25.754059 +0530,
13,0,13,0,24.80168470001081,,24.767060100042727,10,24.80168470001081,24.80168470001081,0.023039499996230006,25.810136000043713,26.244350200053304,[-0.31203703703703706],[-0.1398148148148148],[1],[0],[0],[1.4546083000022918],['target'],217354,001,2024-10-09_14h06.20.321,Vision search,2024.1.5,None,2024-10-09 14h06.25.754059 +0530,
14,0,14,0,26.272550800000317,,26.24741890002042,5,26.272550800000317,26.272550800000317,0.017037999990861863,27.2768038000213,27.662130300013814,[0.16296296296296298],[-0.3037037037037037],[1],[0],[0],[1.397697700012941],['target'],217354,001,2024-10-09_14h06.20.321,Vision search,2024.1.5,None,2024-10-09 14h06.25.754059 +0530,
15,0,15,0,27.693892100011,,27.66608500003349,10,27.693892100011,27.693892100011,0.020119900000281632,28.709502000012435,29.14398750005057,[-0.14166666666666666],[-0.006481481481481481],[1],[0],[0],[1.4582193999667652],['target'],217354,001,2024-10-09_14h06.20.321,Vision search,2024.1.5,None,2024-10-09 14h06.25.754059 +0530,
16,0,16,0,29.17239880003035,,29.146491300023627,10,29.17239880003035,29.17239880003035,0.01763870002469048,30.176458700036164,30.61010770004941,[0.25],[0.2574074074074074],[1],[0],[0],[1.4461560000199825],[],217354,001,2024-10-09_14h06.20.321,Vision search,2024.1.5,None,2024-10-09 14h06.25.754059 +0530,
17,0,17,0,30.62910230003763,,30.612590600037947,5,30.62910230003763,30.62910230003763,0.009838600002694875,31.642111400025897,32.511097500042524,[0.11481481481481481],[-0.24351851851851852],[1],[0],[0],[1.8885651000309736],['target'],217354,001,2024-10-09_14h06.20.321,Vision search,2024.1.5,None,2024-10-09 14h06.25.754059 +0530,
18,0,18,0,32.559802900010254,,32.51533950003795,10,32.559802900010254,32.559802900010254,0.03033300000242889,33.575291400018614,34.04303220001748,[0.4185185185185185],[-0.1675925925925926],[1],[0],[0],[1.4977202000445686],['target'],217354,001,2024-10-09_14h06.20.321,Vision search,2024.1.5,None,2024-10-09 14h06.25.754059 +0530,
19,0,19,0,34.06398060003994,,34.04660500003956,5,34.06398060003994,34.06398060003994,0.011441399983596057,35.07482840004377,35.643460100051016,[0.12685185185185185],[0.2537037037037037],[1],[0],[0],[1.5855733000207692],['target'],217354,001,2024-10-09_14h06.20.321,Vision search,2024.1.5,None,2024-10-09 14h06.25.754059 +0530,
20,0,20,0,35.67961180000566,,35.64763530000346,10,35.67961180000566,35.67961180000566,0.020990299992263317,36.69121380004799,37.09282650001114,[-0.11481481481481481],[0.19166666666666668],[1],[0],[0],[1.4244351999950595],['target'],217354,001,2024-10-09_14h06.20.321,Vision search,2024.1.5,None,2024-10-09 14h06.25.754059 +0530,
21,0,21,0,37.12255720002577,,37.09611550002592,5,37.12255720002577,37.12255720002577,0.01132679998409003,38.124261100019794,38.49359720002394,[0.11296296296296296],[-0.33611111111111114],[1],[0],[0],[1.3861371999955736],['target'],217354,001,2024-10-09_14h06.20.321,Vision search,2024.1.5,None,2024-10-09 14h06.25.754059 +0530,
22,0,22,0,38.54217220004648,,38.498474700027145,10,38.54217220004648,38.54217220004648,0.0213334999862127,39.557240100053605,40.858706400031224,[-0.38055555555555554],[0.17037037037037037],[1],[0],[0],[2.339333300013095],['target'],217354,001,2024-10-09_14h06.20.321,Vision search,2024.1.5,None,2024-10-09 14h06.25.754059 +0530,
23,0,23,0,40.89115500001935,,40.86171170003945,10,40.89115500001935,40.89115500001935,0.01959109999006614,41.889875400054734,43.874822100042365,[-0.3712962962962963],[-0.3472222222222222],[1],[0],[0],[2.9934824000229128],['target'],217354,001,2024-10-09_14h06.20.321,Vision search,2024.1.5,None,2024-10-09 14h06.25.754059 +0530,
24,0,24,0,43.909942300000694,,43.87906360003399,10,43.909942300000694,43.909942300000694,0.020921099989209324,44.9235099000507,46.6401875000447,[0.03981481481481482],[0.13148148148148148],[1],[0],[0],[2.740695299988147],['target'],217354,001,2024-10-09_14h06.20.321,Vision search,2024.1.5,None,2024-10-09 14h06.25.754059 +0530,
25,0,25,0,46.685033400019165,,46.6422881000326,10,46.685033400019165,46.685033400019165,0.01766360003966838,47.68900210002903,49.52318960003322,[0.14444444444444443],[-0.46296296296296297],[1],[0],[0],[2.863304500002414],['target'],217354,001,2024-10-09_14h06.20.321,Vision search,2024.1.5,None,2024-10-09 14h06.25.754059 +0530,
26,0,26,0,49.57091550005134,,49.52603620005539,10,49.57091550005134,49.57091550005134,0.019581700034905225,50.57158850005362,51.72324230003869,[-0.3435185185185185],[0.30092592592592593],[1],[0],[0],[2.177699699997902],['target'],217354,001,2024-10-09_14h06.20.321,Vision search,2024.1.5,None,2024-10-09 14h06.25.754059 +0530,
27,0,27,0,51.75160810002126,,51.72692350001307,5,51.75160810002126,51.75160810002126,0.011704400007147342,52.75430680002319,53.572616400022525,[-0.28888888888888886],[-0.23148148148148148],[1],[0],[0],[1.8342262000078335],['target'],217354,001,2024-10-09_14h06.20.321,Vision search,2024.1.5,None,2024-10-09 14h06.25.754059 +0530,
28,0,28,0,53.594752400007565,,53.576679999998305,5,53.594752400007565,53.594752400007565,0.01197890000184998,54.60416830005124,55.2222009000252,[0.13240740740740742],[-0.1962962962962963],[1],[0],[0],[1.6338533999514766],['target'],217354,001,2024-10-09_14h06.20.321,Vision search,2024.1.5,None,2024-10-09 14h06.25.754059 +0530,
29,0,29,0,55.25341590004973,,55.22653830004856,5,55.25341590004973,55.25341590004973,0.01637299999129027,56.25388690002728,56.87161300005391,[0.03148148148148148],[-0.06018518518518518],[1],[0],[0],[1.6292898000101559],['target'],217354,001,2024-10-09_14h06.20.321,Vision search,2024.1.5,None,2024-10-09 14h06.25.754059 +0530,
30,0,30,0,56.90521009999793,,56.87509010004578,10,56.90521009999793,56.90521009999793,0.02018260001204908,57.920582100050524,59.43779860000359,[0.2722222222222222],[0.05092592592592592],[1],[0],[0],[2.5427722999593243],['target'],217354,001,2024-10-09_14h06.20.321,Vision search,2024.1.5,None,2024-10-09 14h06.25.754059 +0530,
31,0,31,0,59.48391710000578,,59.441226900031324,10,59.48391710000578,59.48391710000578,0.019946200016420335,60.48644820001209,61.903905600018334,[-0.39444444444444443],[-0.34074074074074073],[1],[0],[0],[2.442909999983385],['target'],217354,001,2024-10-09_14h06.20.321,Vision search,2024.1.5,None,2024-10-09 14h06.25.754059 +0530,
32,0,32,0,61.93606490001548,,61.90669830003753,10,61.93606490001548,61.93606490001548,0.01863559999037534,62.935541000042576,63.85324930003844,[-0.10925925925925926],[0.44907407407407407],[1],[0],[0],[1.9282001000246964],['target'],217354,001,2024-10-09_14h06.20.321,Vision search,2024.1.5,None,2024-10-09 14h06.25.754059 +0530,
33,0,33,0,63.87174720002804,,63.85597000003327,5,63.87174720002804,63.87174720002804,0.009477399988099933,64.88544260000344,65.02071609999985,[0.10462962962962963],[0.10925925925925926],[1],[0],[0],[1.1555128999752924],['target'],217354,001,2024-10-09_14h06.20.321,Vision search,2024.1.5,None,2024-10-09 14h06.25.754059 +0530,
34,0,34,0,65.04301730002044,,65.02452430000994,5,65.04301730002044,65.04301730002044,0.011765200004447252,66.05170160002308,66.50356520002242,[0.17777777777777778],[0.3453703703703704],[1],[0],[0],[1.4673289999482222],['target'],217354,001,2024-10-09_14h06.20.321,Vision search,2024.1.5,None,2024-10-09 14h06.25.754059 +0530,
35,0,35,0,66.53390420001233,,66.50904910004465,5,66.53390420001233,66.53390420001233,0.015919200028292835,67.53627460001735,68.28633240005001,[-0.3731481481481482],[-0.27037037037037037],[1],[0],[0],[1.7618674000259489],['target'],217354,001,2024-10-09_14h06.20.321,Vision search,2024.1.5,None,2024-10-09 14h06.25.754059 +0530,
36,0,36,0,68.3310582000413,,68.29046830005245,10,68.3310582000413,68.3310582000413,0.020817400014493614,69.33414210000774,69.81847420003032,[-0.14444444444444443],[0.24074074074074073],[1],[0],[0],[1.5076552999671549],['target'],217354,001,2024-10-09_14h06.20.321,Vision search,2024.1.5,None,2024-10-09 14h06.25.754059 +0530,
37,0,37,0,69.83929329999955,,69.82171020004898,5,69.83929329999955,69.83929329999955,0.012075400038156658,70.85066390002612,71.65218580001965,[0.18333333333333332],[-0.3],[1],[0],[0],[1.8185875000199303],['target'],217354,001,2024-10-09_14h06.20.321,Vision search,2024.1.5,None,2024-10-09 14h06.25.754059 +0530,
38,0,38,0,71.67518150003161,,71.65558990003774,5,71.67518150003161,71.67518150003161,0.010666600021068007,72.68386400002055,73.418369800027,[0.1574074074074074],[0.39166666666666666],[1],[0],[0],[1.7524029000196606],['target'],217354,001,2024-10-09_14h06.20.321,Vision search,2024.1.5,None,2024-10-09 14h06.25.754059 +0530,
39,0,39,0,73.43760310002835,,73.42131640005391,5,73.43760310002835,73.43760310002835,0.010425299988128245,74.45035480003571,75.23450750001939,[-0.49537037037037035],[0.15092592592592594],[1],[0],[0],[1.802914800005965],['target'],217354,001,2024-10-09_14h06.20.321,Vision search,2024.1.5,None,2024-10-09 14h06.25.754059 +0530,
40,0,40,0,75.26703149999958,,75.23910060001072,10,75.26703149999958,75.26703149999958,0.018931700033135712,76.26614900003187,77.18373330001486,[-0.0962962962962963],[-0.37962962962962965],[1],[0],[0],[1.925838900031522],['target'],217354,001,2024-10-09_14h06.20.321,Vision search,2024.1.5,None,2024-10-09 14h06.25.754059 +0530,
41,0,41,0,77.22537710005417,,77.18706580001162,10,77.22537710005417,77.22537710005417,0.021288199990522116,78.23264260002179,78.61733570002252,[0.16018518518518518],[-0.15462962962962962],[1],[0],[0],[1.4091927000554278],['target'],217354,001,2024-10-09_14h06.20.321,Vision search,2024.1.5,None,2024-10-09 14h06.25.754059 +0530,
42,0,42,0,78.63952530000824,,78.62136590003502,5,78.63952530000824,78.63952530000824,0.012294600019231439,79.64874570001848,80.5194006000529,[-0.3907407407407407],[0.3685185185185185],[1],[0],[0],[1.885440100042615],['target'],217354,001,2024-10-09_14h06.20.321,Vision search,2024.1.5,None,2024-10-09 14h06.25.754059 +0530,
43,0,43,0,80.55768110003555,,80.52444570005173,5,80.55768110003555,80.55768110003555,0.01789329998428002,81.56518200004939,82.16646279999986,[0.43796296296296294],[-0.4425925925925926],[1],[0],[0],[1.6246354999602772],['target'],217354,001,2024-10-09_14h06.20.321,Vision search,2024.1.5,None,2024-10-09 14h06.25.754059 +0530,
44,0,44,0,82.21230010001455,,82.16969609999796,10,82.21230010001455,82.21230010001455,0.018464699969626963,83.21469170000637,84.28231500001857,[-0.3194444444444444],[-0.06296296296296296],[1],[0],[0],[2.0944018000154756],['target'],217354,001,2024-10-09_14h06.20.321,Vision search,2024.1.5,None,2024-10-09 14h06.25.754059 +0530,
45,0,45,0,84.30396510002902,,84.2847938000341,5,84.30396510002902,84.30396510002902,0.009384099976159632,85.3141856000293,85.91560800001025,[0.19444444444444445],[0.2490740740740741],[1],[0],[0],[1.6215029999730177],['target'],217354,001,2024-10-09_14h06.20.321,Vision search,2024.1.5,None,2024-10-09 14h06.25.754059 +0530,
46,0,46,0,85.93877090001479,,85.91915480000898,5,85.93877090001479,85.93877090001479,0.012341200024820864,86.94789880001917,87.31528050004272,[0.32685185185185184],[0.2824074074074074],[1],[0],[0],[1.38428220001515],['target'],217354,001,2024-10-09_14h06.20.321,Vision search,2024.1.5,None,2024-10-09 14h06.25.754059 +0530,
47,0,47,0,87.33586120000109,,87.31842980004149,5,87.33586120000109,87.33586120000109,0.00999350001802668,88.34702810004819,88.86501480004517,[0.4527777777777778],[-0.15185185185185185],[1],[0],[0],[1.5368373999954201],['target'],217354,001,2024-10-09_14h06.20.321,Vision search,2024.1.5,None,2024-10-09 14h06.25.754059 +0530,
48,0,48,0,88.91277100000298,,88.86815819999902,10,88.91277100000298,88.91277100000298,0.024913900007959455,89.91310170001816,90.54733070003567,[-0.28055555555555556],[0.3592592592592593],[1],[0],[0],[1.6545811999822035],['target'],217354,001,2024-10-09_14h06.20.321,Vision search,2024.1.5,None,2024-10-09 14h06.25.754059 +0530,
49,0,49,0,90.56633210001746,,90.54990090004867,5,90.56633210001746,90.56633210001746,0.009532800002489239,91.57952140003908,92.74929840001278,[-0.21851851851851853],[-0.18796296296296297],[1],[0],[0],[2.189318099990487],['target'],217354,001,2024-10-09_14h06.20.321,Vision search,2024.1.5,None,2024-10-09 14h06.25.754059 +0530,
50,0,50,0,92.78239860001486,,92.75483060005354,5,92.78239860001486,92.78239860001486,0.016956100007519126,93.79567300004419,94.39778030000161,[-0.44074074074074077],[-0.2037037037037037],[1],[0],[0],[1.626370100013446],['target'],217354,001,2024-10-09_14h06.20.321,Vision search,2024.1.5,None,2024-10-09 14h06.25.754059 +0530,
51,0,51,0,94.43482830002904,,94.4029347000178,10,94.43482830002904,94.43482830002904,0.022168800001963973,95.44531350000761,96.1795046000043,[0.18333333333333332],[0.45925925925925926],[1],[0],[0],[1.7550573999760672],['target'],217354,001,2024-10-09_14h06.20.321,Vision search,2024.1.5,None,2024-10-09 14h06.25.754059 +0530,
52,0,52,0,96.21011360001285,,96.18215510004666,5,96.21011360001285,96.21011360001285,0.010059499996714294,97.21183169999858,98.28014880005503,[-0.1574074074074074],[-0.1259259259259259],[1],[0],[0],[2.0879909999785013],['target'],217354,001,2024-10-09_14h06.20.321,Vision search,2024.1.5,None,2024-10-09 14h06.25.754059 +0530,
53,0,53,0,98.30864330002805,,98.28385430003982,5,98.30864330002805,98.30864330002805,0.014473199960775673,99.31159890000708,100.04702910000924,[-0.2212962962962963],[0.4388888888888889],[1],[0],[0],[1.7487062999862246],['target'],217354,001,2024-10-09_14h06.20.321,Vision search,2024.1.5,None,2024-10-09 14h06.25.754059 +0530,
54,0,54,0,100.07589710003231,,100.05201440001838,5,100.07589710003231,100.07589710003231,0.015373000002000481,101.07793310005218,101.31284369999776,[-0.02962962962962963],[0.23703703703703705],[1],[0],[0],[1.245866700017359],['target'],217354,001,2024-10-09_14h06.20.321,Vision search,2024.1.5,None,2024-10-09 14h06.25.754059 +0530,
55,0,55,0,101.3473520000116,,101.31703000003472,10,101.3473520000116,101.3473520000116,0.021057199977803975,102.36061130004236,102.54527390003204,[-0.07777777777777778],[-0.018518518518518517],[1],[0],[0],[1.2075361000024714],['target'],217354,001,2024-10-09_14h06.20.321,Vision search,2024.1.5,None,2024-10-09 14h06.25.754059 +0530,
56,0,56,0,102.57629600004293,,102.54837400000542,10,102.57629600004293,102.57629600004293,0.019306099973618984,103.57708310004091,104.79455300001428,[0.48055555555555557],[-0.4675925925925926],[1],[0],[0],[2.227147099969443],['target'],217354,001,2024-10-09_14h06.20.321,Vision search,2024.1.5,None,2024-10-09 14h06.25.754059 +0530,
57,0,57,0,104.83894800004782,,104.79760630003875,10,104.83894800004782,104.83894800004782,0.01940469996770844,105.84314589999849,107.444767100038,[-0.2953703703703704],[-0.19537037037037036],[1],[0],[0],[2.6277597000007518],['target'],217354,001,2024-10-09_14h06.20.321,Vision search,2024.1.5,None,2024-10-09 14h06.25.754059 +0530,
58,0,58,0,107.48068940005032,,107.44909980002558,5,107.48068940005032,107.48068940005032,0.012010399950668216,108.49262050003745,109.09511390002444,[-0.006481481481481481],[0.15462962962962962],[1],[0],[0],[1.63392669998575],['target'],217354,001,2024-10-09_14h06.20.321,Vision search,2024.1.5,None,2024-10-09 14h06.25.754059 +0530,
59,0,59,0,109.13186429999769,,109.1003297000425,5,109.13186429999769,109.13186429999769,0.016317499976139516,110.14229760004673,110.89542220003204,[0.013888888888888888],[-0.07222222222222222],[1],[0],[0],[1.7788409999920987],['target'],217354,001,2024-10-09_14h06.20.321,Vision search,2024.1.5,None,2024-10-09 14h06.25.754059 +0530,
60,0,60,0,110.95325550000416,,110.90047310001682,10,110.95325550000416,110.95325550000416,0.03067659999942407,111.95914570003515,112.65957530000014,[-0.38333333333333336],[0.12037037037037036],[1],[0],[0],[1.7291038999683224],['target'],217354,001,2024-10-09_14h06.20.321,Vision search,2024.1.5,None,2024-10-09 14h06.25.754059 +0530,
61,0,61,0,112.68096389999846,,112.66224380000494,5,112.68096389999846,112.68096389999846,0.009520399966277182,113.69189610000467,114.25952180003515,[0.019444444444444445],[0.34629629629629627],[1],[0],[0],[1.587924399995245],['target'],217354,001,2024-10-09_14h06.20.321,Vision search,2024.1.5,None,2024-10-09 14h06.25.754059 +0530,
62,0,62,0,114.28253500000574,,114.26278150000144,5,114.28253500000574,114.28253500000574,0.012127699970733374,115.29116510000313,115.67582250002306,[0.25833333333333336],[0.4462962962962963],[1],[0],[0],[1.401081200048793],[],217354,001,2024-10-09_14h06.20.321,Vision search,2024.1.5,None,2024-10-09 14h06.25.754059 +0530,
63,0,63,0,115.69811070000287,,115.67963650001911,5,115.69811070000287,115.69811070000287,0.012349999975413084,116.70742570003495,117.2085642000311,[-0.21944444444444444],[0.0],[1],[0],[0],[1.516903400013689],['target'],217354,001,2024-10-09_14h06.20.321,Vision search,2024.1.5,None,2024-10-09 14h06.25.754059 +0530,
64,0,64,0,117.24270880001131,,117.21235110005364,5,117.24270880001131,117.24270880001131,0.011639699980150908,118.25716530001955,118.62560340005439,[-0.25925925925925924],[-0.025925925925925925],[1],[0],[0],[1.4018651000224054],['target'],217354,001,2024-10-09_14h06.20.321,Vision search,2024.1.5,None,2024-10-09 14h06.25.754059 +0530,
65,0,65,0,118.66636010003276,,118.62989790004212,10,118.66636010003276,118.66636010003276,0.020651100028771907,119.67359080002643,120.10793030000059,[-0.43425925925925923],[0.3435185185185185],[1],[0],[0],[1.457795599999372],['target'],217354,001,2024-10-09_14h06.20.321,Vision search,2024.1.5,None,2024-10-09 14h06.25.754059 +0530,
66,0,66,0,120.15049600001657,,120.11051110003609,10,120.15049600001657,120.15049600001657,0.01874819997465238,121.15667500003474,121.44124640000518,[-0.003703703703703704],[0.11944444444444445],[1],[0],[0],[1.3120151999755763],['target'],217354,001,2024-10-09_14h06.20.321,Vision search,2024.1.5,None,2024-10-09 14h06.25.754059 +0530,
67,0,67,0,121.4744451000006,,121.44468990003224,5,121.4744451000006,121.4744451000006,0.01119940000353381,122.48943740001414,123.29076940001687,[0.47685185185185186],[-0.11296296296296296],[1],[0],[0],[1.835145300021395],['target'],217354,001,2024-10-09_14h06.20.321,Vision search,2024.1.5,None,2024-10-09 14h06.25.754059 +0530,
68,0,68,0,123.323695100029,,123.2933998000226,5,123.323695100029,123.323695100029,0.010078400024212897,124.32272430002922,124.92406250000931,[-0.03981481481481482],[-0.23796296296296296],[1],[0],[0],[1.6206168999779038],['target'],217354,001,2024-10-09_14h06.20.321,Vision search,2024.1.5,None,2024-10-09 14h06.25.754059 +0530,
69,0,69,0,124.94353320001392,,124.92747070000041,5,124.94353320001392,124.94353320001392,0.011156700027640909,125.95557960000588,126.19025540002622,[0.007407407407407408],[-0.15648148148148147],[1],[0],[0],[1.251834399998188],['target'],217354,001,2024-10-09_14h06.20.321,Vision search,2024.1.5,None,2024-10-09 14h06.25.754059 +0530,
70,0,70,0,126.2411614000448,,126.19455480005126,10,126.2411614000448,126.2411614000448,0.024067500024102628,127.25512190000154,128.10618970001815,[-0.32222222222222224],[0.3861111111111111],[1],[0],[0],[1.888119600014761],['target'],217354,001,2024-10-09_14h06.20.321,Vision search,2024.1.5,None,2024-10-09 14h06.25.754059 +0530,
71,0,71,0,128.13817910000216,,128.10856730001979,5,128.13817910000216,128.13817910000216,0.00989849999314174,129.13810020004166,129.82286260003457,[0.23796296296296296],[0.030555555555555555],[1],[0],[0],[1.7044272999628447],['target'],217354,001,2024-10-09_14h06.20.321,Vision search,2024.1.5,None,2024-10-09 14h06.25.754059 +0530,
72,0,72,0,129.87138010002673,,129.82692640001187,10,129.87138010002673,129.87138010002673,0.02038560004439205,130.8714635000215,131.87253190000774,[0.4305555555555556],[-0.3333333333333333],[1],[0],[0],[2.0254576000152156],['target'],217354,001,2024-10-09_14h06.20.321,Vision search,2024.1.5,None,2024-10-09 14h06.25.754059 +0530,
73,0,73,0,131.9052405000548,,131.87676590000046,5,131.9052405000548,131.9052405000548,0.013360800046939403,132.90411310002673,133.488919800031,[0.21203703703703702],[0.14629629629629629],[1],[0],[0],[1.599219300027471],['target'],217354,001,2024-10-09_14h06.20.321,Vision search,2024.1.5,None,2024-10-09 14h06.25.754059 +0530,
74,0,74,0,133.53852890001144,,133.49245830002474,10,133.53852890001144,133.53852890001144,0.02099009999074042,134.55392620002385,135.12156940001296,[0.5],[-0.05925925925925926],[1],[0],[0],[1.608604600012768],['target'],217354,001,2024-10-09_14h06.20.321,Vision search,2024.1.5,None,2024-10-09 14h06.25.754059 +0530,
75,0,75,0,135.1693408000283,,135.12434020004002,10,135.1693408000283,135.1693408000283,0.018709299969486892,136.1701452000416,137.1543349000276,[-0.3472222222222222],[-0.23981481481481481],[1],[0],[0],[2.011506799957715],['target'],217354,001,2024-10-09_14h06.20.321,Vision search,2024.1.5,None,2024-10-09 14h06.25.754059 +0530,
76,0,76,0,137.1759831000236,,137.1567240000004,5,137.1759831000236,137.1759831000236,0.008969300019089133,138.1863929000101,138.62097000004724,[0.4722222222222222],[0.05925925925925926],[1],[0],[0],[1.4553275000071153],['target'],217354,001,2024-10-09_14h06.20.321,Vision search,2024.1.5,None,2024-10-09 14h06.25.754059 +0530,
77,0,77,0,138.6666469000047,,138.6241263000411,10,138.6666469000047,138.6666469000047,0.018836000002920628,139.66965760005405,141.1699985000305,[-0.4027777777777778],[-0.05462962962962963],[1],[0],[0],[2.5272557999705896],['target'],217354,001,2024-10-09_14h06.20.321,Vision search,2024.1.5,None,2024-10-09 14h06.25.754059 +0530,
78,0,78,0,141.20000510005048,,141.17312089999905,10,141.20000510005048,141.20000510005048,0.01932620001025498,142.2026888000546,143.4198533000308,[0.2361111111111111],[0.3638888888888889],[1],[0],[0],[2.22768879996147],['target'],217354,001,2024-10-09_14h06.20.321,Vision search,2024.1.5,None,2024-10-09 14h06.25.754059 +0530,
79,0,79,0,143.46520100004273,,143.42262440000195,10,143.46520100004273,143.46520100004273,0.0181688999873586,144.46822200005408,145.16926440002862,[0.30277777777777776],[-0.25277777777777777],[1],[0],[0],[1.7286747999605723],['target'],217354,001,2024-10-09_14h06.20.321,Vision search,2024.1.5,None,2024-10-09 14h06.25.754059 +0530,
80,0,80,0,145.20179220003774,,145.17164800001774,10,145.20179220003774,145.20179220003774,0.01782080001430586,146.2012974000536,146.8363970000064,[0.462037037037037],[0.2037037037037037],[1],[0],[0],[1.6469484000117518],['target'],217354,001,2024-10-09_14h06.20.321,Vision search,2024.1.5,None,2024-10-09 14h06.25.754059 +0530,
81,0,81,0,146.88545660005184,,146.84033470001305,10,146.88545660005184,146.88545660005184,0.020243500010110438,147.9008470000117,148.65186370001175,[-0.28425925925925927],[-0.3907407407407407],[1],[0],[0],[1.7917532999999821],['target'],217354,001,2024-10-09_14h06.20.321,Vision search,2024.1.5,None,2024-10-09 14h06.25.754059 +0530,
82,0,82,0,148.6927263000398,,148.65464430005522,10,148.6927263000398,148.6927263000398,0.01841930003138259,149.70064700004878,150.06880020000972,[0.10833333333333334],[0.31666666666666665],[1],[0],[0],[1.3957840999937616],['target'],217354,001,2024-10-09_14h06.20.321,Vision search,2024.1.5,None,2024-10-09 14h06.25.754059 +0530,
83,0,83,0,150.1172116000089,,150.07312880002428,10,150.1172116000089,150.1172116000089,0.02616810001200065,151.11699930002214,151.91788530000485,[0.4083333333333333],[0.487962962962963],[1],[0],[0],[1.8190860000322573],[],217354,001,2024-10-09_14h06.20.321,Vision search,2024.1.5,None,2024-10-09 14h06.25.754059 +0530,
84,0,84,0,151.9487965000444,,151.9206877000397,5,151.9487965000444,151.9487965000444,0.015715999994426966,152.9496244000038,153.7844326000195,[-0.4601851851851852],[-0.3351851851851852],[1],[0],[0],[1.8482190999784507],['target'],217354,001,2024-10-09_14h06.20.321,Vision search,2024.1.5,None,2024-10-09 14h06.25.754059 +0530,
85,0,85,0,153.8069547000341,,153.7872385000228,5,153.8069547000341,153.8069547000341,0.009301899990532547,154.8161786000128,155.56838790001348,[0.11481481481481481],[0.31851851851851853],[1],[0],[0],[1.771695000003092],['target'],217354,001,2024-10-09_14h06.20.321,Vision search,2024.1.5,None,2024-10-09 14h06.25.754059 +0530,
86,0,86,0,155.5930879000225,,155.57370200002333,5,155.5930879000225,155.5930879000225,0.013951100001577288,156.59944680001354,157.11692060000496,[0.30185185185185187],[-0.16203703703703703],[1],[0],[0],[1.5299231000244617],['target'],217354,001,2024-10-09_14h06.20.321,Vision search,2024.1.5,None,2024-10-09 14h06.25.754059 +0530,
87,0,87,0,157.1642488000216,,157.1196084000403,10,157.1642488000216,157.1642488000216,0.02489120000973344,158.16515650000656,159.10028910002438,[-0.38425925925925924],[0.10277777777777777],[1],[0],[0],[1.955919099971652],['target'],217354,001,2024-10-09_14h06.20.321,Vision search,2024.1.5,None,2024-10-09 14h06.25.754059 +0530,
88,0,88,0,159.15180410002358,,159.10398820001865,10,159.15180410002358,159.15180410002358,0.020655500004068017,160.16504510003142,160.31619420001516,[-0.049074074074074076],[0.053703703703703705],[1],[0],[0],[1.1920062000281177],['target'],217354,001,2024-10-09_14h06.20.321,Vision search,2024.1.5,None,2024-10-09 14h06.25.754059 +0530,
89,0,89,0,160.34536900004605,,160.31886920001125,10,160.34536900004605,160.34536900004605,0.017640299978666008,161.3480873000226,162.01639770000475,[-0.49074074074074076],[0.1638888888888889],[1],[0],[0],[1.679960800043773],['target'],217354,001,2024-10-09_14h06.20.321,Vision search,2024.1.5,None,2024-10-09 14h06.25.754059 +0530,
90,0,90,0,162.06202260003192,,162.01959660003195,10,162.06202260003192,162.06202260003192,0.028563400031998754,163.06458980002208,163.8653247000184,[0.38796296296296295],[0.12037037037037036],[1],[0],[0],[1.8174344000290148],['target'],217354,001,2024-10-09_14h06.20.321,Vision search,2024.1.5,None,2024-10-09 14h06.25.754059 +0530,
91,0,91,0,163.8980510000256,,163.8680848000222,10,163.8980510000256,163.8980510000256,0.018509299959987402,164.89723950001644,165.83164150000084,[0.4212962962962963],[-0.06851851851851852],[1],[0],[0],[1.9452503999928012],[],217354,001,2024-10-09_14h06.20.321,Vision search,2024.1.5,None,2024-10-09 14h06.25.754059 +0530,
92,0,92,0,165.8548315000371,,165.83498240000335,5,165.8548315000371,165.8548315000371,0.010641700006090105,166.86393150000367,167.73183840001002,[0.21203703703703702],[-0.3907407407407407],[1],[0],[0],[1.8863708999706432],['target'],217354,001,2024-10-09_14h06.20.321,Vision search,2024.1.5,None,2024-10-09 14h06.25.754059 +0530,
93,0,93,0,167.77485440002056,,167.73613110004226,10,167.77485440002056,167.77485440002056,0.02074090001406148,168.78004220000003,169.24766220001038,[0.43796296296296294],[-0.014814814814814815],[1],[0],[0],[1.4912889000261202],['target'],217354,001,2024-10-09_14h06.20.321,Vision search,2024.1.5,None,2024-10-09 14h06.25.754059 +0530,
94,0,94,0,169.2920428000507,,169.25091660005273,10,169.2920428000507,169.2920428000507,0.019946500018704683,170.29626220004866,170.29771720001008,[0.4222222222222222],[-0.019444444444444445],[1],[0],[0],[1.0273357999976724],['target'],217354,001,2024-10-09_14h06.20.321,Vision search,2024.1.5,None,2024-10-09 14h06.25.754059 +0530,
95,0,95,0,170.34121310000774,,170.30152440001257,10,170.34121310000774,170.34121310000774,0.019839799962937832,171.3459137000027,171.41359090001788,[0.33240740740740743],[0.12314814814814815],[1],[0],[0],[1.0926968999556266],['target'],217354,001,2024-10-09_14h06.20.321,Vision search,2024.1.5,None,2024-10-09 14h06.25.754059 +0530,
96,0,96,0,171.4389375000028,,171.41576090001035,5,171.4389375000028,171.4389375000028,0.00888229999691248,172.4463223000057,173.48129060002975,[-0.14166666666666666],[-0.362962962962963],[1],[0],[0],[2.056184299988672],['target'],217354,001,2024-10-09_14h06.20.321,Vision search,2024.1.5,None,2024-10-09 14h06.25.754059 +0530,
97,0,97,0,173.51476600003662,,173.48653440002818,5,173.51476600003662,173.51476600003662,0.0160784000181593,174.5283913000021,175.52965880004922,[-0.22592592592592592],[0.325],[1],[0],[0],[2.0276469999807887],['target'],217354,001,2024-10-09_14h06.20.321,Vision search,2024.1.5,None,2024-10-09 14h06.25.754059 +0530,
98,0,98,0,175.57422580005368,,175.53276450000703,10,175.57422580005368,175.57422580005368,0.019031699979677796,176.57837200001813,177.61295570002403,[0.35],[0.42777777777777776],[1],[0],[0],[2.0612012000055984],['target'],217354,001,2024-10-09_14h06.20.321,Vision search,2024.1.5,None,2024-10-09 14h06.25.754059 +0530,
99,0,99,0,177.63709540001582,,177.61723570001777,5,177.63709540001582,177.63709540001582,0.01331059995573014,178.64453760004835,179.46282430004794,[-0.3907407407407407],[0.27870370370370373],[1],[0],[0],[1.832596599997487],['target'],217354,001,2024-10-09_14h06.20.321,Vision search,2024.1.5,None,2024-10-09 14h06.25.754059 +0530,
100,0,100,0,179.50984160002554,,179.46646820002934,10,179.50984160002554,179.50984160002554,0.020457400009036064,180.51089170004707,180.84516200004146,[-0.09537037037037037],[0.26481481481481484],[1],[0],[0],[1.3584392999764532],['target'],217354,001,2024-10-09_14h06.20.321,Vision search,2024.1.5,None,2024-10-09 14h06.25.754059 +0530,
101,0,101,0,180.8901694000233,,180.849635999999,10,180.8901694000233,180.8901694000233,0.027836999972350895,181.89355450001312,182.362493200053,[-0.42962962962962964],[0.39444444444444443],[1],[0],[0],[1.485063799947966],['target'],217354,001,2024-10-09_14h06.20.321,Vision search,2024.1.5,None,2024-10-09 14h06.25.754059 +0530,
102,0,102,0,182.40169010002865,,182.36669710004935,10,182.40169010002865,182.40169010002865,0.021618700004182756,183.41006020002533,184.09430140000768,[0.18796296296296297],[0.18888888888888888],[1],[0],[0],[1.7066202000132762],['target'],217354,001,2024-10-09_14h06.20.321,Vision search,2024.1.5,None,2024-10-09 14h06.25.754059 +0530,
103,0,103,0,184.14162800001213,,184.0968529000529,10,184.14162800001213,184.14162800001213,0.018024199991486967,185.14325180003652,185.6107905000099,[0.45925925925925926],[0.16296296296296298],[1],[0],[0],[1.4961013000574894],['target'],217354,001,2024-10-09_14h06.20.321,Vision search,2024.1.5,None,2024-10-09 14h06.25.754059 +0530,
104,0,104,0,185.6426596000092,,185.61322800000198,10,185.6426596000092,185.6426596000092,0.01782090001506731,186.64246570004616,187.44348010001704,[0.14814814814814814],[-0.05740740740740741],[1],[0],[0],[1.812552899995353],['target'],217354,001,2024-10-09_14h06.20.321,Vision search,2024.1.5,None,2024-10-09 14h06.25.754059 +0530,
105,0,105,0,187.48936450004112,,187.44648590002907,10,187.48936450004112,187.48936450004112,0.018897600006312132,188.49201660003746,189.64369540003827,[-0.3314814814814815],[0.375],[1],[0],[0],[2.178542700014077],['target'],217354,001,2024-10-09_14h06.20.321,Vision search,2024.1.5,None,2024-10-09 14h06.25.754059 +0530,
106,0,106,0,189.6898032000172,,189.64688559999922,10,189.6898032000172,189.6898032000172,0.020501399994827807,190.69166570005473,192.65928840002744,[-0.26481481481481484],[0.462037037037037],[1],[0],[0],[2.9921095999889076],['target'],217354,001,2024-10-09_14h06.20.321,Vision search,2024.1.5,None,2024-10-09 14h06.25.754059 +0530,
107,0,107,0,192.70572530000936,,192.66241710004397,10,192.70572530000936,192.70572530000936,0.02926589996786788,193.70816700003343,194.40992610005196,[0.4462962962962963],[0.1935185185185185],[1],[0],[0],[1.7182152000023052],['target'],217354,001,2024-10-09_14h06.20.321,Vision search,2024.1.5,None,2024-10-09 14h06.25.754059 +0530,
108,0,108,0,194.4416999000241,,194.41452810005285,5,194.4416999000241,194.4416999000241,0.017100299999583513,195.44103919999907,196.39250240003457,[-0.13703703703703704],[-0.22685185185185186],[1],[0],[0],[1.9613989000208676],['target'],217354,001,2024-10-09_14h06.20.321,Vision search,2024.1.5,None,2024-10-09 14h06.25.754059 +0530,
109,0,109,0,196.43140970001696,,196.3962153000175,10,196.43140970001696,196.43140970001696,0.02022090001264587,197.4410109000164,198.25775460002478,[0.39814814814814814],[0.18796296296296297],[1],[0],[0],[1.8417767999926582],['target'],217354,001,2024-10-09_14h06.20.321,Vision search,2024.1.5,None,2024-10-09 14h06.25.754059 +0530,
110,0,110,0,198.2876721000066,,198.260010100028,10,198.2876721000066,198.2876721000066,0.018311399966478348,199.2899846000364,200.09128710004734,[0.06944444444444445],[-0.2916666666666667],[1],[0],[0],[1.8130221999599598],['target'],217354,001,2024-10-09_14h06.20.321,Vision search,2024.1.5,None,2024-10-09 14h06.25.754059 +0530,
111,0,111,0,200.15157430002,,200.09417110000504,10,200.15157430002,200.15157430002,0.02532199997222051,201.15638110000873,201.84165090002352,[-0.41388888888888886],[0.05],[1],[0],[0],[1.7223187999916263],['target'],217354,001,2024-10-09_14h06.20.321,Vision search,2024.1.5,None,2024-10-09 14h06.25.754059 +0530,
112,0,112,0,201.88725350005552,,201.84489110001596,10,201.88725350005552,201.88725350005552,0.019119400007184595,202.88921670004493,203.42415120004443,[0.1648148148148148],[-0.026851851851851852],[1],[0],[0],[1.5603705000248738],['target'],217354,001,2024-10-09_14h06.20.321,Vision search,2024.1.5,None,2024-10-09 14h06.25.754059 +0530,
113,0,113,0,203.45564570004353,,203.4275644000154,5,203.45564570004353,203.45564570004353,0.011296999990008771,204.45559620001586,204.79066190001322,[-0.24351851851851852],[-0.25092592592592594],[1],[0],[0],[1.3519180000294],['target'],217354,001,2024-10-09_14h06.20.321,Vision search,2024.1.5,None,2024-10-09 14h06.25.754059 +0530,
114,0,114,0,204.84335190005368,,204.79531420004787,10,204.84335190005368,204.84335190005368,0.02569540002150461,205.8551914000418,205.92296820000047,[0.012962962962962963],[0.0787037037037037],[1],[0],[0],[1.1024558000499383],['target'],217354,001,2024-10-09_14h06.20.321,Vision search,2024.1.5,None,2024-10-09 14h06.25.754059 +0530,
115,0,115,0,205.96501620003255,,205.92578060005326,10,205.96501620003255,205.96501620003255,0.01876589999301359,206.97235620004358,207.2228868000093,[0.2212962962962963],[0.049074074074074076],[1],[0],[0],[1.278538899961859],['target'],217354,001,2024-10-09_14h06.20.321,Vision search,2024.1.5,None,2024-10-09 14h06.25.754059 +0530,
116,0,116,0,207.25687920005294,,207.22615740000037,10,207.25687920005294,207.25687920005294,0.01867130002938211,208.2713690000237,209.92266510002082,[0.11481481481481481],[-0.24722222222222223],[1],[0],[0],[2.678128600004129],['target'],217354,001,2024-10-09_14h06.20.321,Vision search,2024.1.5,None,2024-10-09 14h06.25.754059 +0530,
117,0,117,0,209.9426519999979,,209.92555780004477,5,209.9426519999979,209.9426519999979,0.010641900007613003,210.9539617000264,211.90558390005026,[0.39444444444444443],[-0.023148148148148147],[1],[0],[0],[1.9695600000559352],['target'],217354,001,2024-10-09_14h06.20.321,Vision search,2024.1.5,None,2024-10-09 14h06.25.754059 +0530,
118,0,118,0,211.9267507000477,,211.90852100000484,5,211.9267507000477,211.9267507000477,0.010984199994709343,212.93714280001586,213.20545340003446,[0.47129629629629627],[-0.1388888888888889],[1],[0],[0],[1.285991800017655],['target'],217354,001,2024-10-09_14h06.20.321,Vision search,2024.1.5,None,2024-10-09 14h06.25.754059 +0530,
119,0,119,0,213.2296209000051,,213.2105678000371,5,213.2296209000051,213.2296209000051,0.012940499989781529,214.23742400004994,215.77240680000978,[-0.43425925925925923],[0.4527777777777778],[1],[0],[0],[2.549418099981267],['target'],217354,001,2024-10-09_14h06.20.321,Vision search,2024.1.5,None,2024-10-09 14h06.25.754059 +0530,
120,0,120,0,215.81235300004482,,215.7764998000348,10,215.81235300004482,215.81235300004482,0.02115559997037053,216.8196000000462,218.13702590001049,[0.20462962962962963],[0.4925925925925926],[1],[0],[0],[2.3398020999738947],[],217354,001,2024-10-09_14h06.20.321,Vision search,2024.1.5,None,2024-10-09 14h06.25.754059 +0530,
121,0,121,0,218.18247730005533,,218.14000850002049,10,218.18247730005533,218.18247730005533,0.019545799994375557,219.18558190000476,219.9705531000509,[-0.3990740740740741],[-0.10462962962962963],[1],[0],[0],[1.811132600007113],['target'],217354,001,2024-10-09_14h06.20.321,Vision search,2024.1.5,None,2024-10-09 14h06.25.754059 +0530,
122,0,122,0,220.02259659999982,,219.9745901999995,10,220.02259659999982,220.02259659999982,0.020351499959360808,221.0353524000384,221.26954360003583,[0.36203703703703705],[-0.17037037037037037],[1],[0],[0],[1.275176899973303],['target'],217354,001,2024-10-09_14h06.20.321,Vision search,2024.1.5,None,2024-10-09 14h06.25.754059 +0530,
123,0,123,0,221.30771580000874,,221.2715876000002,10,221.30771580000874,221.30771580000874,0.01825899997493252,222.31833850004477,222.90255260001868,[-0.33425925925925926],[-0.09907407407407408],[1],[0],[0],[1.612773599976208],['target'],217354,001,2024-10-09_14h06.20.321,Vision search,2024.1.5,None,2024-10-09 14h06.25.754059 +0530,
124,0,124,0,222.92681920004543,,222.90542950003874,5,222.92681920004543,222.92681920004543,0.010278599977027625,223.9350178000168,226.05280040000798,[0.1675925925925926],[0.23703703703703705],[1],[0],[0],[3.137196900031995],['target'],217354,001,2024-10-09_14h06.20.321,Vision search,2024.1.5,None,2024-10-09 14h06.25.754059 +0530,
125,0,125,0,226.1009387000231,,226.0571084000403,10,226.1009387000231,226.1009387000231,0.02601100003812462,227.1006319000153,228.41807060001884,[-0.003703703703703704],[0.2601851851851852],[1],[0],[0],[2.3354647000087425],['target'],217354,001,2024-10-09_14h06.20.321,Vision search,2024.1.5,None,2024-10-09 14h06.25.754059 +0530,
126,0,126,0,228.4418588000117,,228.4207740999991,5,228.4418588000117,228.4418588000117,0.011453700019046664,229.4504614000325,229.86846370005514,[0.44166666666666665],[0.06481481481481481],[1],[0],[0],[1.4363899999880232],['target'],217354,001,2024-10-09_14h06.20.321,Vision search,2024.1.5,None,2024-10-09 14h06.25.754059 +0530,
127,0,127,0,229.91665720002493,,229.87187260005157,10,229.91665720002493,229.91665720002493,0.02063149999594316,230.91665010002907,231.53444920002948,[0.23148148148148148],[0.4166666666666667],[1],[0],[0],[1.6421779000083916],['target'],217354,001,2024-10-09_14h06.20.321,Vision search,2024.1.5,None,2024-10-09 14h06.25.754059 +0530,
128,0,128,0,231.55795760004548,,231.53738809999777,5,231.55795760004548,231.55795760004548,0.010319099994376302,232.5663281000452,232.71892480005044,[0.010185185185185186],[0.38333333333333336],[1],[0],[0],[1.170911499997601],['target'],217354,001,2024-10-09_14h06.20.321,Vision search,2024.1.5,None,2024-10-09 14h06.25.754059 +0530,
129,0,129,0,232.77408980001928,,232.7244252000237,10,232.77408980001928,232.77408980001928,0.02787630003876984,233.78268320002826,234.7337489000056,[0.06018518518518518],[-0.30925925925925923],[1],[0],[0],[1.9822239999775775],['target'],217354,001,2024-10-09_14h06.20.321,Vision search,2024.1.5,None,2024-10-09 14h06.25.754059 +0530,
130,0,130,0,234.7671215000446,,234.73634770000353,10,234.7671215000446,234.7671215000446,0.017937000025995076,235.76573320000898,236.2336506000138,[-0.11944444444444445],[0.18981481481481483],[1],[0],[0],[1.4794973999960348],['target'],217354,001,2024-10-09_14h06.20.321,Vision search,2024.1.5,None,2024-10-09 14h06.25.754059 +0530,
131,0,131,0,236.2528755000094,,236.23645460000262,5,236.2528755000094,236.2528755000094,0.010558999958448112,237.26523890002863,238.3333130000392,[-0.24444444444444444],[-0.4675925925925926],[1],[0],[0],[2.0864946999936365],['target'],217354,001,2024-10-09_14h06.20.321,Vision search,2024.1.5,None,2024-10-09 14h06.25.754059 +0530,
132,0,132,0,238.3659076000331,,238.3366614000406,10,238.3659076000331,238.3659076000331,0.01866800000425428,239.38153910002438,239.9825994000421,[0.10092592592592593],[-0.3675925925925926],[1],[0],[0],[1.627563099958934],['target'],217354,001,2024-10-09_14h06.20.321,Vision search,2024.1.5,None,2024-10-09 14h06.25.754059 +0530,
133,0,133,0,240.01925930002471,,239.98523750004824,10,240.01925930002471,240.01925930002471,0.01800280000315979,241.03102220001165,242.74850670003798,[-0.34074074074074073],[0.33240740740740743],[1],[0],[0],[2.745484100014437],['target'],217354,001,2024-10-09_14h06.20.321,Vision search,2024.1.5,None,2024-10-09 14h06.25.754059 +0530,
134,0,134,0,242.7900144000305,,242.75083120004274,10,242.7900144000305,242.7900144000305,0.01731100003235042,243.7971720000496,244.31487520004157,[-0.06851851851851852],[0.38333333333333336],[1],[0],[0],[1.5468034000368789],['target'],217354,001,2024-10-09_14h06.20.321,Vision search,2024.1.5,None,2024-10-09 14h06.25.754059 +0530,
135,0,135,0,244.34133640001528,,244.31777429999784,5,244.34133640001528,244.34133640001528,0.014480100013315678,245.34742620005272,246.46462480002083,[-0.41574074074074074],[0.14074074074074075],[1],[0],[0],[2.132534999982454],['target'],217354,001,2024-10-09_14h06.20.321,Vision search,2024.1.5,None,2024-10-09 14h06.25.754059 +0530,
136,0,136,0,246.5095253000036,,246.4675847000326,10,246.5095253000036,246.5095253000036,0.019011099997442216,247.51279800001066,249.1138440000359,[-0.38796296296296295],[-0.36944444444444446],[1],[0],[0],[2.627460499992594],['target'],217354,001,2024-10-09_14h06.20.321,Vision search,2024.1.5,None,2024-10-09 14h06.25.754059 +0530,
137,0,137,0,249.15258140000515,,249.116417000012,10,249.15258140000515,249.15258140000515,0.01806660002330318,250.16227070003515,251.09713020001072,[0.18703703703703703],[0.05648148148148148],[1],[0],[0],[1.9626911000232212],['target'],217354,001,2024-10-09_14h06.20.321,Vision search,2024.1.5,None,2024-10-09 14h06.25.754059 +0530,
138,0,138,0,251.13427520002006,,251.10094410000602,10,251.13427520002006,251.13427520002006,0.020456099999137223,252.14532770001097,252.44622720003827,[0.3972222222222222],[0.24814814814814815],[1],[0],[0],[1.3253040999989025],['target'],217354,001,2024-10-09_14h06.20.321,Vision search,2024.1.5,None,2024-10-09 14h06.25.754059 +0530,
139,0,139,0,252.48385740001686,,252.44848820002517,10,252.48385740001686,252.48385740001686,0.017318799975328147,253.49512760003563,253.71276890003355,[0.35555555555555557],[0.1787037037037037],[1],[0],[0],[1.247048299992457],['target'],217354,001,2024-10-09_14h06.20.321,Vision search,2024.1.5,None,2024-10-09 14h06.25.754059 +0530,
140,0,140,0,253.74970990000293,,253.71594790002564,5,253.74970990000293,253.74970990000293,0.015345699968747795,254.76167950005038,255.4462887000409,[-0.14166666666666666],[-0.1527777777777778],[1],[0],[0],[1.7151673000189476],['target'],217354,001,2024-10-09_14h06.20.321,Vision search,2024.1.5,None,2024-10-09 14h06.25.754059 +0530,
141,0,141,0,255.47083390003536,,255.44934730004752,5,255.47083390003536,255.47083390003536,0.010297400003764778,256.47787280002376,256.6796013000421,[-0.1638888888888889],[-0.1712962962962963],[1],[0],[0],[1.2199482999858446],['target'],217354,001,2024-10-09_14h06.20.321,Vision search,2024.1.5,None,2024-10-09 14h06.25.754059 +0530,
142,0,142,0,256.73210530000506,,256.6846853000461,10,256.73210530000506,256.73210530000506,0.02220770000712946,257.7451668000431,258.32843200000934,[0.12037037037037036],[-0.41203703703703703],[1],[0],[0],[1.6221389999845996],['target'],217354,001,2024-10-09_14h06.20.321,Vision search,2024.1.5,None,2024-10-09 14h06.25.754059 +0530,
143,0,143,0,258.375674800016,,258.3313025000389,10,258.375674800016,258.375674800016,0.019079599995166063,259.3771135000279,259.9448329000152,[0.3074074074074074],[0.06018518518518518],[1],[0],[0],[1.5947274999925867],['target'],217354,001,2024-10-09_14h06.20.321,Vision search,2024.1.5,None,2024-10-09 14h06.25.754059 +0530,
144,0,144,0,259.99112350004725,,259.9471396000008,10,259.99112350004725,259.99112350004725,0.018162199994549155,260.99347020004643,262.4784155000234,[-0.2638888888888889],[0.32407407407407407],[1],[0],[0],[2.51311210001586],['target'],217354,001,2024-10-09_14h06.20.321,Vision search,2024.1.5,None,2024-10-09 14h06.25.754059 +0530,
145,0,145,0,262.50857170001836,,262.48331280000275,5,262.50857170001836,262.50857170001836,0.017450599989388138,263.5096332000103,263.9444949000026,[-0.010185185185185186],[0.4351851851851852],[1],[0],[0],[1.4443254999932833],['target'],217354,001,2024-10-09_14h06.20.321,Vision search,2024.1.5,None,2024-10-09 14h06.25.754059 +0530,
146,0,146,0,263.9692170000053,,263.94857600005344,5,263.9692170000053,263.9692170000053,0.012835600005928427,264.97611270000925,266.1937638000236,[-0.11203703703703703],[0.4703703703703704],[1],[0],[0],[2.232795999967493],['target'],217354,001,2024-10-09_14h06.20.321,Vision search,2024.1.5,None,2024-10-09 14h06.25.754059 +0530,
147,0,147,0,266.24054650001926,,266.19687270000577,10,266.24054650001926,266.24054650001926,0.018590599996969104,267.24214420001954,267.6934284000308,[-0.0824074074074074],[0.4685185185185185],[1],[0],[0],[1.4781984000001103],['target'],217354,001,2024-10-09_14h06.20.321,Vision search,2024.1.5,None,2024-10-09 14h06.25.754059 +0530,
148,0,148,0,267.732556700008,,267.6965094000334,10,267.732556700008,267.732556700008,0.01925329997902736,268.74185260001104,269.99369319999823,[0.25277777777777777],[-0.3287037037037037],[1],[0],[0],[2.2779144000378437],['target'],217354,001,2024-10-09_14h06.20.321,Vision search,2024.1.5,None,2024-10-09 14h06.25.754059 +0530,
149,0,149,0,270.01765620004153,,269.99723880004603,5,270.01765620004153,270.01765620004153,0.011770999990403652,271.02459280000767,271.60939710005186,[0.42685185185185187],[-0.14351851851851852],[1],[0],[0],[1.6006324999616481],['target'],217354,001,2024-10-09_14h06.20.321,Vision search,2024.1.5,None,2024-10-09 14h06.25.754059 +0530,
150,0,150,0,271.63334720005514,,271.6132189000491,5,271.63334720005514,271.63334720005514,0.01157729997066781,272.6410552000161,273.2928295000456,[-0.4777777777777778],[-0.025],[1],[0],[0],[1.6683291000081226],['target'],217354,001,2024-10-09_14h06.20.321,Vision search,2024.1.5,None,2024-10-09 14h06.25.754059 +0530,
151,0,151,0,273.3307549000019,,273.29680170002393,10,273.3307549000019,273.3307549000019,0.020517600001767278,274.3410341000417,274.92514150001807,[0.1675925925925926],[-0.26296296296296295],[1],[0],[0],[1.6082442000042647],['target'],217354,001,2024-10-09_14h06.20.321,Vision search,2024.1.5,None,2024-10-09 14h06.25.754059 +0530,
152,0,152,0,274.9673472000286,,274.92795030004345,10,274.9673472000286,274.9673472000286,0.019118099997285753,275.9743501000339,276.9414588000509,[0.4601851851851852],[0.43333333333333335],[1],[0],[0],[1.9945445000194013],['target'],217354,001,2024-10-09_14h06.20.321,Vision search,2024.1.5,None,2024-10-09 14h06.25.754059 +0530,
153,0,153,0,276.988161700021,,276.943875500001,10,276.988161700021,276.988161700021,0.01732300000730902,277.990210900025,279.62419600004796,[-0.004629629629629629],[0.005555555555555556],[1],[0],[0],[2.6630148999975063],['target'],217354,001,2024-10-09_14h06.20.321,Vision search,2024.1.5,None,2024-10-09 14h06.25.754059 +0530,
154,0,154,0,279.6608460000134,,279.6275722000282,10,279.6608460000134,279.6608460000134,0.019132899993564934,280.6734297000221,281.57454770000186,[-0.42314814814814816],[0.011111111111111112],[1],[0],[0],[1.9279624999617226],['target'],217354,001,2024-10-09_14h06.20.321,Vision search,2024.1.5,None,2024-10-09 14h06.25.754059 +0530,
155,0,155,0,281.6081163000199,,281.57829620002303,10,281.6081163000199,281.6081163000199,0.020224900043103844,282.622438600054,283.7060985999997,[0.21296296296296297],[0.36666666666666664],[1],[0],[0],[2.1080217999988236],['target'],217354,001,2024-10-09_14h06.20.321,Vision search,2024.1.5,None,2024-10-09 14h06.25.754059 +0530,
156,0,156,0,283.73398320004344,,283.70799880003324,10,283.73398320004344,283.73398320004344,0.017319700040388852,284.7384777000407,285.3728531000088,[-0.1574074074074074],[-0.13240740740740742],[1],[0],[0],[1.6476249999832362],['target'],217354,001,2024-10-09_14h06.20.321,Vision search,2024.1.5,None,2024-10-09 14h06.25.754059 +0530,
157,0,157,0,285.41529910004465,,285.37519260001136,10,285.41529910004465,285.41529910004465,0.017768100020475686,286.4215311000007,286.722522200027,[0.13148148148148148],[0.12129629629629629],[1],[0],[0],[1.3297325000166893],['target'],217354,001,2024-10-09_14h06.20.321,Vision search,2024.1.5,None,2024-10-09 14h06.25.754059 +0530,
158,0,158,0,286.74973190005403,,286.7250762000331,5,286.74973190005403,286.74973190005403,0.009601500001735985,287.7543619000353,288.38954880001256,[0.06018518518518518],[0.34814814814814815],[1],[0],[0],[1.6545770000084303],['target'],217354,001,2024-10-09_14h06.20.321,Vision search,2024.1.5,None,2024-10-09 14h06.25.754059 +0530,
159,0,159,0,288.41315170004964,,288.39335470000515,5,288.41315170004964,288.41315170004964,0.011721200018655509,289.4209219000186,290.0722742000362,[-0.17777777777777778],[-0.3138888888888889],[1],[0],[0],[1.6675046000164002],['target'],217354,001,2024-10-09_14h06.20.321,Vision search,2024.1.5,None,2024-10-09 14h06.25.754059 +0530,
160,0,160,0,290.10497210000176,,290.07552440004656,5,290.10497210000176,290.10497210000176,0.011193200014531612,291.12058110005455,291.8382986000506,[-0.004629629629629629],[-0.13425925925925927],[1],[0],[0],[1.7517679000156932],['target'],217354,001,2024-10-09_14h06.20.321,Vision search,2024.1.5,None,2024-10-09 14h06.25.754059 +0530,
161,0,161,0,291.860412500042,,291.84127280005487,5,291.860412500042,291.860412500042,0.010240100033115596,292.86986030003754,293.37134380004136,[0.1925925925925926],[0.2935185185185185],[1],[0],[0],[1.5200492999865673],['target'],217354,001,2024-10-09_14h06.20.321,Vision search,2024.1.5,None,2024-10-09 14h06.25.754059 +0530,
162,0,162,0,293.414247800014,,293.3744660000084,10,293.414247800014,293.414247800014,0.018723500019405037,294.41973340004915,294.83812590001617,[0.08703703703703704],[0.3277777777777778],[1],[0],[0],[1.4451555000268854],[],217354,001,2024-10-09_14h06.20.321,Vision search,2024.1.5,None,2024-10-09 14h06.25.754059 +0530,
163,0,163,0,294.8862062000553,,294.84094940003706,10,294.8862062000553,294.8862062000553,0.018357700027991086,295.88616760005243,296.2538837000029,[0.4222222222222222],[-0.09537037037037037],[1],[0],[0],[1.3947396000148728],['target'],217354,001,2024-10-09_14h06.20.321,Vision search,2024.1.5,None,2024-10-09 14h06.25.754059 +0530,
164,0,164,0,296.27478200005135,,296.2561368000461,5,296.27478200005135,296.27478200005135,0.009244999964721501,297.2860885000555,298.4376833999995,[-0.25],[0.3638888888888889],[1],[0],[0],[2.1721905000158586],['target'],217354,001,2024-10-09_14h06.20.321,Vision search,2024.1.5,None,2024-10-09 14h06.25.754059 +0530,
165,0,165,0,298.48367090005195,,298.4422293000389,10,298.48367090005195,298.48367090005195,0.02110809995792806,299.48528510000324,300.18604590004543,[0.12222222222222222],[0.4],[1],[0],[0],[1.7231650999747217],['target'],217354,001,2024-10-09_14h06.20.321,Vision search,2024.1.5,None,2024-10-09 14h06.25.754059 +0530,
166,0,166,0,300.2041211000178,,300.188127100002,5,300.2041211000178,300.2041211000178,0.009518200007732958,301.21832870005164,302.55409620003775,[0.41574074074074074],[-0.3296296296296296],[1],[0],[0],[2.3559975000098348],['target'],217354,001,2024-10-09_14h06.20.321,Vision search,2024.1.5,None,2024-10-09 14h06.25.754059 +0530,
167,0,167,0,302.59614980005426,,302.5586861000047,10,302.59614980005426,302.59614980005426,0.02150249999249354,303.60108839999884,304.06980009999825,[0.4962962962962963],[0.23703703703703705],[1],[0],[0],[1.4899136000312865],['target'],217354,001,2024-10-09_14h06.20.321,Vision search,2024.1.5,None,2024-10-09 14h06.25.754059 +0530,
168,0,168,0,304.09344540000893,,304.07414640003117,5,304.09344540000893,304.09344540000893,0.012657699990086257,305.1008683000109,306.036742300028,[-0.45],[-0.005555555555555556],[1],[0],[0],[1.9501492000417784],['target'],217354,001,2024-10-09_14h06.20.321,Vision search,2024.1.5,None,2024-10-09 14h06.25.754059 +0530,
169,0,169,0,306.0857670000405,,306.0418283000472,10,306.0857670000405,306.0857670000405,0.02139449998503551,307.1003385000513,307.6182532000239,[0.058333333333333334],[-0.07314814814814814],[1],[0],[0],[1.5555980000062846],['target'],217354,001,2024-10-09_14h06.20.321,Vision search,2024.1.5,None,2024-10-09 14h06.25.754059 +0530,
170,0,170,0,307.63739570003236,,307.62020980002126,5,307.63739570003236,307.63739570003236,0.008992899965960532,308.6502887000097,309.55130070005544,[-0.40185185185185185],[-0.20833333333333334],[1],[0],[0],[1.9221346999984235],['target'],217354,001,2024-10-09_14h06.20.321,Vision search,2024.1.5,None,2024-10-09 14h06.25.754059 +0530,
171,0,171,0,309.574280300003,,309.5546422000043,5,309.574280300003,309.574280300003,0.011271600029431283,310.58301270002266,310.8681378000183,[0.17777777777777778],[0.08611111111111111],[1],[0],[0],[1.3024026000057347],['target'],217354,001,2024-10-09_14h06.20.321,Vision search,2024.1.5,None,2024-10-09 14h06.25.754059 +0530,
172,0,172,0,310.8946247000131,,310.87205790000735,5,310.8946247000131,310.8946247000131,0.01318169996375218,311.8993157000514,312.2519754000241,[-0.046296296296296294],[0.22962962962962963],[1],[0],[0],[1.3667252999730408],['target'],217354,001,2024-10-09_14h06.20.321,Vision search,2024.1.5,None,2024-10-09 14h06.25.754059 +0530,
173,0,173,0,312.30443430005107,,312.2573846000014,10,312.30443430005107,312.30443430005107,0.025793600012548268,313.3154223000165,314.0338037000038,[0.4537037037037037],[-0.4212962962962963],[1],[0],[0],[1.751224200008437],['target'],217354,001,2024-10-09_14h06.20.321,Vision search,2024.1.5,None,2024-10-09 14h06.25.754059 +0530,
174,0,174,0,314.07537540001795,,314.036809000012,10,314.07537540001795,314.07537540001795,0.018186400004196912,315.0819148000446,316.91727520001587,[-0.4074074074074074],[-0.3685185185185185],[1],[0],[0],[2.862338000035379],[],217354,001,2024-10-09_14h06.20.321,Vision search,2024.1.5,None,2024-10-09 14h06.25.754059 +0530,
175,0,175,0,316.96949550003046,,316.92250540002715,10,316.96949550003046,316.96949550003046,0.030003599997144192,317.98182130005443,318.8157991000335,[-0.4546296296296296],[0.16296296296296298],[1],[0],[0],[1.8645007000304759],['target'],217354,001,2024-10-09_14h06.20.321,Vision search,2024.1.5,None,2024-10-09 14h06.25.754059 +0530,
176,0,176,0,318.84264980000444,,318.818329700036,5,318.84264980000444,318.84264980000444,0.012449700036086142,319.8482643000316,320.64944440004183,[-0.06574074074074074],[-0.3574074074074074],[1],[0],[0],[1.818498799984809],['target'],217354,001,2024-10-09_14h06.20.321,Vision search,2024.1.5,None,2024-10-09 14h06.25.754059 +0530,
177,0,177,0,320.671689800045,,320.6534231000114,5,320.671689800045,320.671689800045,0.01251789997331798,321.6805496000452,322.2817597000394,[0.337037037037037],[0.387037037037037],[1],[0],[0],[1.6162099000066519],['target'],217354,001,2024-10-09_14h06.20.321,Vision search,2024.1.5,None,2024-10-09 14h06.25.754059 +0530,
178,0,178,0,322.30154330004007,,322.284965800005,5,322.30154330004007,322.30154330004007,0.010528700018767267,323.3134524000343,323.54973330005305,[-0.06574074074074074],[0.35462962962962963],[1],[0],[0],[1.2540511999977753],['target'],217354,001,2024-10-09_14h06.20.321,Vision search,2024.1.5,None,2024-10-09 14h06.25.754059 +0530,
179,0,179,0,323.5753716000472,,323.553486000048,5,323.5753716000472,323.5753716000472,0.014906600001268089,324.5799835000071,325.1490065000253,[0.06944444444444445],[-0.18055555555555555],[1],[0],[0],[1.5806995000457391],['target'],217354,001,2024-10-09_14h06.20.321,Vision search,2024.1.5,None,2024-10-09 14h06.25.754059 +0530,
180,0,180,0,325.17413490003673,,325.1537892000051,5,325.17413490003673,325.17413490003673,0.01290480000898242,326.1795118000009,326.53141470003175,[-0.12962962962962962],[0.4351851851851852],[1],[0],[0],[1.3654496999806724],['target'],217354,001,2024-10-09_14h06.20.321,Vision search,2024.1.5,None,2024-10-09 14h06.25.754059 +0530,
181,0,181,0,326.593777400034,,326.54255470004864,10,326.593777400034,326.593777400034,0.03736429999116808,327.59586370002944,328.24764370004414,[0.225],[-0.45925925925925926],[1],[0],[0],[1.6679382000002079],['target'],217354,001,2024-10-09_14h06.20.321,Vision search,2024.1.5,None,2024-10-09 14h06.25.754059 +0530,
182,0,182,0,328.2837708000443,,328.2525656000362,5,328.2837708000443,328.2837708000443,0.013752099999692291,329.2955030000303,329.814128900005,[-0.24351851851851852],[-0.017592592592592594],[1],[0],[0],[1.548244200006593],['target'],217354,001,2024-10-09_14h06.20.321,Vision search,2024.1.5,None,2024-10-09 14h06.25.754059 +0530,
183,0,183,0,329.85857410001336,,329.81713060004404,10,329.85857410001336,329.85857410001336,0.019026200054213405,330.8620562000433,331.6132464000257,[-0.009259259259259259],[0.3574074074074074],[1],[0],[0],[1.7772279999917373],['target'],217354,001,2024-10-09_14h06.20.321,Vision search,2024.1.5,None,2024-10-09 14h06.25.754059 +0530,
184,0,184,0,331.6406894000247,,331.6173163000494,5,331.6406894000247,331.6406894000247,0.012560800008941442,332.6448725000373,333.5297784000286,[-0.24259259259259258],[-0.225],[1],[0],[0],[1.9002894000150263],['target'],217354,001,2024-10-09_14h06.20.321,Vision search,2024.1.5,None,2024-10-09 14h06.25.754059 +0530,
185,0,185,0,333.5740384000237,,333.5331485000206,10,333.5740384000237,333.5740384000237,0.019442800024989992,334.5779167000437,334.97951890004333,[-0.09351851851851851],[0.19537037037037036],[1],[0],[0],[1.4271008999785408],['target'],217354,001,2024-10-09_14h06.20.321,Vision search,2024.1.5,None,2024-10-09 14h06.25.754059 +0530,
186,0,186,0,335.01032800000394,,334.9831774000195,5,335.01032800000394,335.01032800000394,0.01469149999320507,336.0109208000358,336.33007050002925,[0.175],[0.39814814814814814],[1],[0],[0],[1.3319429999683052],['target'],217354,001,2024-10-09_14h06.20.321,Vision search,2024.1.5,None,2024-10-09 14h06.25.754059 +0530,
187,0,187,0,336.3890388000291,,336.3345781000098,10,336.3890388000291,336.3890388000291,0.03001269995002076,337.39403200004017,338.2624829999986,[-0.025925925925925925],[0.06481481481481481],[1],[0],[0],[1.898190199979581],['target'],217354,001,2024-10-09_14h06.20.321,Vision search,2024.1.5,None,2024-10-09 14h06.25.754059 +0530,
188,0,188,0,338.2996974000125,,338.26708260003943,10,338.2996974000125,338.2996974000125,0.022104799980297685,339.31031780003104,340.5949026000453,[-0.09814814814814815],[-0.4101851851851852],[1],[0],[0],[2.30627000000095],['target'],217354,001,2024-10-09_14h06.20.321,Vision search,2024.1.5,None,2024-10-09 14h06.25.754059 +0530,
189,0,189,0,340.61382760002743,,340.5979518000386,5,340.61382760002743,340.61382760002743,0.010379299987107515,341.62646510003833,341.8956391000538,[-0.09537037037037037],[0.24722222222222223],[1],[0],[0],[1.2872393000288866],['target'],217354,001,2024-10-09_14h06.20.321,Vision search,2024.1.5,None,2024-10-09 14h06.25.754059 +0530,
190,0,190,0,341.9405965000042,,341.90050300001167,10,341.9405965000042,341.9405965000042,0.029518800030928105,342.94275440002093,343.27846880001016,[-0.026851851851851852],[-0.17037037037037037],[1],[0],[0],[1.3488483999972232],['target'],217354,001,2024-10-09_14h06.20.321,Vision search,2024.1.5,None,2024-10-09 14h06.25.754059 +0530,
191,0,191,0,343.3067977000028,,343.2823881000513,5,343.3067977000028,343.3067977000028,0.01713789999485016,344.3089715000242,344.7103773000417,[0.325],[-0.13425925925925927],[1],[0],[0],[1.4112183999968693],['target'],217354,001,2024-10-09_14h06.20.321,Vision search,2024.1.5,None,2024-10-09 14h06.25.754059 +0530,
192,0,192,0,344.7493577999994,,344.71390210004756,5,344.7493577999994,344.7493577999994,0.016101700020954013,345.75897020002594,347.14365720003843,[-0.3277777777777778],[-0.2064814814814815],[1],[0],[0],[2.4139106000075117],['target'],217354,001,2024-10-09_14h06.20.321,Vision search,2024.1.5,None,2024-10-09 14h06.25.754059 +0530,
193,0,193,0,347.1653605000465,,347.14704619999975,5,347.1653605000465,347.1653605000465,0.010652500030118972,348.1751931000035,348.75972150004236,[-0.33611111111111114],[-0.026851851851851852],[1],[0],[0],[1.6021916999598034],['target'],217354,001,2024-10-09_14h06.20.321,Vision search,2024.1.5,None,2024-10-09 14h06.25.754059 +0530,
194,0,194,0,348.7845462000114,,348.76333670003805,5,348.7845462000114,348.7845462000114,0.01311230001738295,349.7912756000296,350.5257728000288,[0.14722222222222223],[0.4203703703703704],[1],[0],[0],[1.7495913000311702],['target'],217354,001,2024-10-09_14h06.20.321,Vision search,2024.1.5,None,2024-10-09 14h06.25.754059 +0530,
195,0,195,0,350.5579384000157,,350.52900390001014,10,350.5579384000157,350.5579384000157,0.01902399997925386,351.55756780004594,351.74303160002455,[0.32222222222222224],[0.06388888888888888],[1],[0],[0],[1.1947886999696493],['target'],217354,001,2024-10-09_14h06.20.321,Vision search,2024.1.5,None,2024-10-09 14h06.25.754059 +0530,
196,0,196,0,351.76843750005355,,351.74664270004723,5,351.76843750005355,351.76843750005355,0.014900800015311688,352.77486860001227,353.04253730003256,[0.30092592592592593],[0.2814814814814815],[1],[0],[0],[1.2810951999854296],['target'],217354,001,2024-10-09_14h06.20.321,Vision search,2024.1.5,None,2024-10-09 14h06.25.754059 +0530,
197,0,197,0,353.0803896000143,,353.0453364000423,10,353.0803896000143,353.0803896000143,0.018337399989832193,,353.65818330005277,[0.30092592592592593],[0.2814814814814815],[1],[0],[0],[0.5947043999913149],['target'],217354,001,2024-10-09_14h06.20.321,Vision search,2024.1.5,None,2024-10-09 14h06.25.754059 +0530,
198,0,198,0,353.6995487000095,,353.6615146000404,10,353.6995487000095,353.6995487000095,0.01897500001359731,354.70707720000064,355.82495440001367,[-0.10092592592592593],[-0.41944444444444445],[1],[0],[0],[2.1447089999564923],['target'],217354,001,2024-10-09_14h06.20.321,Vision search,2024.1.5,None,2024-10-09 14h06.25.754059 +0530,
199,0,199,0,355.87228950002464,,355.8280249000527,10,355.87228950002464,355.87228950002464,0.025880099972710013,356.87301050004316,358.140658600023,[0.425],[0.21203703703703702],[1],[0],[0],[2.287059299997054],['target'],217354,001,2024-10-09_14h06.20.321,Vision search,2024.1.5,None,2024-10-09 14h06.25.754059 +0530,
