trials.thisRepN,trials.thisTrialN,trials.thisN,trials.thisIndex,thisRow.t,notes,trial.started,num_distr,fixation.started,target.started,mouse.started,fixation.stopped,trial.stopped,mouse.x,mouse.y,mouse.leftButton,mouse.midButton,mouse.rightButton,mouse.time,mouse.clicked_name,participant,session,date,expName,psychopyVersion,frameRate,expStart,
0,0,0,0,0.035465699969790876,,0.005707599979359657,5,0.035465699969790876,0.035465699969790876,0.019894099968951195,1.0424913999740966,1.7845715999719687,[-0.002777777777777778],[-0.08055555555555556],[1],[0],[0],[1.763687500031665],['target'],248650,001,2024-10-08_13h06.08.631,Vision search,2024.1.5,None,2024-10-08 13h06.18.197862 +0530,
1,0,1,0,1.8181117999483831,,1.794244399992749,5,1.8181117999483831,1.8181117999483831,0.017899799975566566,2.8251858999719843,3.3940252999891527,[-0.2388888888888889],[0.06296296296296296],[1],[0],[0],[1.5820026000146754],['target'],248650,001,2024-10-08_13h06.08.631,Vision search,2024.1.5,None,2024-10-08 13h06.18.197862 +0530,
2,0,2,0,3.433209999988321,,3.3996250999625772,10,3.433209999988321,3.433209999988321,0.02627770003164187,4.441726199991535,5.20998949999921,[0.35462962962962963],[0.4212962962962963],[1],[0],[0],[1.7843606999958865],['target'],248650,001,2024-10-08_13h06.08.631,Vision search,2024.1.5,None,2024-10-08 13h06.18.197862 +0530,
3,0,3,0,5.262430899951141,,5.2146915999474,10,5.262430899951141,5.262430899951141,0.034053999988827854,6.274309000000358,7.109132399957161,[0.4388888888888889],[0.1425925925925926],[1],[0],[0],[1.8607842999626882],['target'],248650,001,2024-10-08_13h06.08.631,Vision search,2024.1.5,None,2024-10-08 13h06.18.197862 +0530,
4,0,4,0,7.137025299947709,,7.112300799984951,5,7.137025299947709,7.137025299947709,0.01576740003656596,8.14106829999946,9.093043499975465,[-0.2814814814814815],[-0.4722222222222222],[1],[0],[0],[1.964929400011897],[],248650,001,2024-10-08_13h06.08.631,Vision search,2024.1.5,None,2024-10-08 13h06.18.197862 +0530,
5,0,5,0,9.130563799990341,,9.098348899977282,10,9.130563799990341,9.130563799990341,0.025816700013820082,10.140422699972987,10.291801599960309,[-0.044444444444444446],[-0.3509259259259259],[1],[0],[0],[1.1685526000219397],['target'],248650,001,2024-10-08_13h06.08.631,Vision search,2024.1.5,None,2024-10-08 13h06.18.197862 +0530,
6,0,6,0,10.337662999983877,,10.29492219997337,10,10.337662999983877,10.337662999983877,0.02602869999827817,11.339973899943288,11.79260369995609,[-0.2574074074074074],[0.13425925925925927],[1],[0],[0],[1.4714828000287525],['target'],248650,001,2024-10-08_13h06.08.631,Vision search,2024.1.5,None,2024-10-08 13h06.18.197862 +0530,
7,0,7,0,11.824674199975561,,11.798972499964293,5,11.824674199975561,11.824674199975561,0.019673400034662336,12.839598699996714,13.20848329999717,[0.046296296296296294],[-0.032407407407407406],[1],[0],[0],[1.390662899997551],['target'],248650,001,2024-10-08_13h06.08.631,Vision search,2024.1.5,None,2024-10-08 13h06.18.197862 +0530,
8,0,8,0,13.237857599975541,,13.212726400000975,5,13.237857599975541,13.237857599975541,0.01618080004118383,14.239335199992638,14.774719799985178,[-0.2351851851851852],[0.2935185185185185],[1],[0],[0],[1.5461867999983951],['target'],248650,001,2024-10-08_13h06.08.631,Vision search,2024.1.5,None,2024-10-08 13h06.18.197862 +0530,
9,0,9,0,14.810294599970803,,14.779713600000832,10,14.810294599970803,14.810294599970803,0.022454399964772165,,15.707320299989078,[0.09166666666666666],[0.19166666666666668],[1],[0],[0],[0.9056169000105001],['target'],248650,001,2024-10-08_13h06.08.631,Vision search,2024.1.5,None,2024-10-08 13h06.18.197862 +0530,
10,0,10,0,15.727706599980593,,15.7104440999683,5,15.727706599980593,15.727706599980593,0.012118900020141155,16.73905229999218,17.207628899952397,[-0.25833333333333336],[-0.3138888888888889],[1],[0],[0],[1.4851639000116847],['target'],248650,001,2024-10-08_13h06.08.631,Vision search,2024.1.5,None,2024-10-08 13h06.18.197862 +0530,
11,0,11,0,17.3097416999517,,17.21195029997034,10,17.3097416999517,17.3097416999517,0.033268800005316734,18.322379199962597,18.97446219995618,[0.17037037037037037],[0.22685185185185186],[1],[0],[0],[1.7292141999932937],['target'],248650,001,2024-10-08_13h06.08.631,Vision search,2024.1.5,None,2024-10-08 13h06.18.197862 +0530,
12,0,12,0,19.003253799979575,,18.9784780999762,5,19.003253799979575,19.003253799979575,0.017777199973352253,20.005228800000623,20.440155699965544,[0.1814814814814815],[-0.28703703703703703],[1],[0],[0],[1.4441551000345498],['target'],248650,001,2024-10-08_13h06.08.631,Vision search,2024.1.5,None,2024-10-08 13h06.18.197862 +0530,
13,0,13,0,20.477193799975794,,20.444154399971012,10,20.477193799975794,20.477193799975794,0.022713500016834587,21.487026199989486,22.556724399968516,[-0.4777777777777778],[-0.12962962962962962],[1],[0],[0],[2.0900665000081062],['target'],248650,001,2024-10-08_13h06.08.631,Vision search,2024.1.5,None,2024-10-08 13h06.18.197862 +0530,
14,0,14,0,22.582479399978183,,22.561287899967283,5,22.582479399978183,22.582479399978183,0.015389800013508648,23.587405499943998,23.922589599969797,[-0.2064814814814815],[0.10740740740740741],[1],[0],[0],[1.3462519000167958],['target'],248650,001,2024-10-08_13h06.08.631,Vision search,2024.1.5,None,2024-10-08 13h06.18.197862 +0530,
15,0,15,0,23.973737099964637,,23.926487599965185,10,23.973737099964637,23.973737099964637,0.02182859997265041,24.987195099995006,27.421258899965324,[-0.12777777777777777],[-0.47314814814814815],[1],[0],[0],[3.4734801999875344],[],248650,001,2024-10-08_13h06.08.631,Vision search,2024.1.5,None,2024-10-08 13h06.18.197862 +0530,
16,0,16,0,27.47148769994965,,27.4236333000008,10,27.47148769994965,27.47148769994965,0.028036800038535148,28.48704379994888,29.637725699984003,[-0.14166666666666666],[-0.43703703703703706],[1],[0],[0],[2.1861096000066027],['target'],248650,001,2024-10-08_13h06.08.631,Vision search,2024.1.5,None,2024-10-08 13h06.18.197862 +0530,
17,0,17,0,29.683300599979702,,29.641053499944974,10,29.683300599979702,29.683300599979702,0.024989099998492748,30.68611619999865,31.470692999952007,[-0.49074074074074076],[-0.3148148148148148],[1],[0],[0],[1.8049109000130557],['target'],248650,001,2024-10-08_13h06.08.631,Vision search,2024.1.5,None,2024-10-08 13h06.18.197862 +0530,
18,0,18,0,31.51005909999367,,31.473529499955475,10,31.51005909999367,31.51005909999367,0.021294400037731975,32.518917399982456,33.039367599994875,[-0.2898148148148148],[0.13333333333333333],[1],[0],[0],[1.5436846999800764],['target'],248650,001,2024-10-08_13h06.08.631,Vision search,2024.1.5,None,2024-10-08 13h06.18.197862 +0530,
19,0,19,0,33.09082459995989,,33.04410979995737,10,33.09082459995989,33.09082459995989,0.023220499977469444,34.102068199950736,34.63673609995749,[-0.26666666666666666],[-0.1259259259259259],[1],[0],[0],[1.5697867999551818],['target'],248650,001,2024-10-08_13h06.08.631,Vision search,2024.1.5,None,2024-10-08 13h06.18.197862 +0530,
20,0,20,0,34.65899219998391,,34.63995989999967,5,34.65899219998391,34.65899219998391,0.012660100008361042,35.66828369995346,36.30387309996877,[-0.40185185185185185],[-0.022222222222222223],[1],[0],[0],[1.651204099995084],['target'],248650,001,2024-10-08_13h06.08.631,Vision search,2024.1.5,None,2024-10-08 13h06.18.197862 +0530,
21,0,21,0,36.38888969999971,,36.308505499968305,5,36.38888969999971,36.38888969999971,0.06082009995589033,37.401227199996356,38.13651009998284,[0.1527777777777778],[0.4962962962962963],[1],[0],[0],[1.7675793999806046],['target'],248650,001,2024-10-08_13h06.08.631,Vision search,2024.1.5,None,2024-10-08 13h06.18.197862 +0530,
22,0,22,0,38.17016419995343,,38.14034939999692,5,38.17016419995343,38.17016419995343,0.019129700027406216,39.18443669995759,39.818641799967736,[0.007407407407407408],[-0.47129629629629627],[1],[0],[0],[1.6595288999960758],['target'],248650,001,2024-10-08_13h06.08.631,Vision search,2024.1.5,None,2024-10-08 13h06.18.197862 +0530,
23,0,23,0,39.850124899996445,,39.821421000000555,5,39.850124899996445,39.850124899996445,0.011246400012169033,40.85072669998044,41.2852485999465,[-0.39166666666666666],[-0.03981481481481482],[1],[0],[0],[1.4530438999645412],['target'],248650,001,2024-10-08_13h06.08.631,Vision search,2024.1.5,None,2024-10-08 13h06.18.197862 +0530,
24,0,24,0,41.30512669996824,,41.287060599948745,5,41.30512669996824,41.30512669996824,0.011506899958476424,42.31661559996428,46.533837599970866,[-0.44722222222222224],[0.42407407407407405],[1],[0],[0],[5.235237899993081],['target'],248650,001,2024-10-08_13h06.08.631,Vision search,2024.1.5,None,2024-10-08 13h06.18.197862 +0530,
25,0,25,0,46.57140580000123,,46.53569919994334,10,46.57140580000123,46.57140580000123,0.021183600008953363,47.58232499996666,48.91667959996266,[-0.025],[-0.30833333333333335],[1],[0],[0],[2.3598110000020824],['target'],248650,001,2024-10-08_13h06.08.631,Vision search,2024.1.5,None,2024-10-08 13h06.18.197862 +0530,
26,0,26,0,48.937502999964636,,48.91869919997407,5,48.937502999964636,48.937502999964636,0.011209199961740524,49.9487964999862,50.30040859995643,[-0.09074074074074075],[0.23333333333333334],[1],[0],[0],[1.370283099997323],['target'],248650,001,2024-10-08_13h06.08.631,Vision search,2024.1.5,None,2024-10-08 13h06.18.197862 +0530,
27,0,27,0,50.336564199998975,,50.30556539999088,5,50.336564199998975,50.336564199998975,0.01953930000308901,51.34851489996072,51.88405870000133,[-0.37777777777777777],[-0.08703703703703704],[1],[0],[0],[1.55937420000555],['target'],248650,001,2024-10-08_13h06.08.631,Vision search,2024.1.5,None,2024-10-08 13h06.18.197862 +0530,
28,0,28,0,51.93730389996199,,51.88880209997296,10,51.93730389996199,51.93730389996199,0.031847800011746585,52.94783079996705,54.482399499975145,[0.31574074074074077],[-0.13518518518518519],[1],[0],[0],[2.562253799987957],['target'],248650,001,2024-10-08_13h06.08.631,Vision search,2024.1.5,None,2024-10-08 13h06.18.197862 +0530,
29,0,29,0,54.513989399943966,,54.485323799948674,10,54.513989399943966,54.513989399943966,0.018936000007670373,55.514750899979845,58.165381099970546,[0.4537037037037037],[0.032407407407407406],[1],[0],[0],[3.6611891000065953],[],248650,001,2024-10-08_13h06.08.631,Vision search,2024.1.5,None,2024-10-08 13h06.18.197862 +0530,
30,0,30,0,58.20482859999174,,58.169458999997005,10,58.20482859999174,58.20482859999174,0.022970299993176013,59.213353999948595,60.430983099970035,[-0.5064814814814815],[-0.3787037037037037],[1],[0],[0],[2.238926399964839],['target'],248650,001,2024-10-08_13h06.08.631,Vision search,2024.1.5,None,2024-10-08 13h06.18.197862 +0530,
31,0,31,0,60.465958899992984,,60.43380299996352,10,60.465958899992984,60.465958899992984,0.020114899962209165,61.4797279999475,62.131125399959274,[-0.3888888888888889],[0.28425925925925927],[1],[0],[0],[1.677285599987954],['target'],248650,001,2024-10-08_13h06.08.631,Vision search,2024.1.5,None,2024-10-08 13h06.18.197862 +0530,
32,0,32,0,62.162753299984615,,62.13606319995597,5,62.162753299984615,62.162753299984615,0.01717449998250231,63.16228989994852,63.89966809999896,[0.025],[-0.18703703703703703],[1],[0],[0],[1.746311200025957],['target'],248650,001,2024-10-08_13h06.08.631,Vision search,2024.1.5,None,2024-10-08 13h06.18.197862 +0530,
33,0,33,0,63.950604099954944,,63.90475249994779,10,63.950604099954944,63.950604099954944,0.033324799966067076,64.96196509996662,66.1459720999701,[0.30185185185185187],[0.4398148148148148],[1],[0],[0],[2.2085879999794997],['target'],248650,001,2024-10-08_13h06.08.631,Vision search,2024.1.5,None,2024-10-08 13h06.18.197862 +0530,
34,0,34,0,66.16642279998632,,66.14868149999529,5,66.16642279998632,66.16642279998632,0.009024800034239888,67.17831939994358,68.51281579997158,[0.2574074074074074],[0.42777777777777776],[1],[0],[0],[2.354955999995582],['target'],248650,001,2024-10-08_13h06.08.631,Vision search,2024.1.5,None,2024-10-08 13h06.18.197862 +0530,
35,0,35,0,68.54937759996392,,68.51682179997442,10,68.54937759996392,68.54937759996392,0.02329989999998361,69.56028639996657,70.89535649999743,[-0.4777777777777778],[0.03981481481481482],[1],[0],[0],[2.3556030000327155],['target'],248650,001,2024-10-08_13h06.08.631,Vision search,2024.1.5,None,2024-10-08 13h06.18.197862 +0530,
36,0,36,0,70.9168820999912,,70.89838279999094,5,70.9168820999912,70.9168820999912,0.011554200027603656,71.9275066999835,72.41234949999489,[-0.2222222222222222],[-0.12222222222222222],[1],[0],[0],[1.5024462000001222],['target'],248650,001,2024-10-08_13h06.08.631,Vision search,2024.1.5,None,2024-10-08 13h06.18.197862 +0530,
37,0,37,0,72.44366469996748,,72.41692899999907,5,72.44366469996748,72.44366469996748,0.017236299987416714,73.44353739998769,74.01259069994558,[0.125],[0.43425925925925923],[1],[0],[0],[1.578803499985952],['target'],248650,001,2024-10-08_13h06.08.631,Vision search,2024.1.5,None,2024-10-08 13h06.18.197862 +0530,
38,0,38,0,74.0383566999808,,74.01778859994374,5,74.0383566999808,74.0383566999808,0.01487990003079176,75.04311099997722,75.99463589995867,[0.43796296296296294],[-0.1425925925925926],[1],[0],[0],[1.9622345000389032],['target'],248650,001,2024-10-08_13h06.08.631,Vision search,2024.1.5,None,2024-10-08 13h06.18.197862 +0530,
39,0,39,0,76.04304269998102,,75.99810459994478,10,76.04304269998102,76.04304269998102,0.030472499958705157,77.04370509996079,78.1438714999822,[-0.10185185185185185],[-0.43425925925925923],[1],[0],[0],[2.1152422999730334],['target'],248650,001,2024-10-08_13h06.08.631,Vision search,2024.1.5,None,2024-10-08 13h06.18.197862 +0530,
40,0,40,0,78.16605589998653,,78.14771859999746,5,78.16605589998653,78.16605589998653,0.011400400020647794,79.17584739997983,79.66057089995593,[-0.23148148148148148],[-0.2601851851851852],[1],[0],[0],[1.5016068000113592],['target'],248650,001,2024-10-08_13h06.08.631,Vision search,2024.1.5,None,2024-10-08 13h06.18.197862 +0530,
41,0,41,0,79.68179589998908,,79.66416149999714,5,79.68179589998908,79.68179589998908,0.011921099969185889,80.69222799997078,81.16004819999216,[0.1787037037037037],[0.001851851851851852],[1],[0],[0],[1.4841982999932952],['target'],248650,001,2024-10-08_13h06.08.631,Vision search,2024.1.5,None,2024-10-08 13h06.18.197862 +0530,
42,0,42,0,81.19866579998052,,81.16363409999758,10,81.19866579998052,81.19866579998052,0.02195559995016083,82.20854219998,83.14298419997795,[0.487962962962963],[0.39444444444444443],[1],[0],[0],[1.9576825000112876],['target'],248650,001,2024-10-08_13h06.08.631,Vision search,2024.1.5,None,2024-10-08 13h06.18.197862 +0530,
43,0,43,0,83.1795345999999,,83.14652019995265,10,83.1795345999999,83.1795345999999,0.02119569998467341,84.19223439996131,84.85960719996365,[-0.021296296296296296],[0.24537037037037038],[1],[0],[0],[1.6923015000065789],['target'],248650,001,2024-10-08_13h06.08.631,Vision search,2024.1.5,None,2024-10-08 13h06.18.197862 +0530,
44,0,44,0,84.89381979999598,,84.86332479998237,10,84.89381979999598,84.89381979999598,0.020615899993572384,85.90752269997029,86.35853229998611,[-0.07407407407407407],[-0.07222222222222222],[1],[0],[0],[1.4750206000171602],['target'],248650,001,2024-10-08_13h06.08.631,Vision search,2024.1.5,None,2024-10-08 13h06.18.197862 +0530,
45,0,45,0,86.39084599999478,,86.361299399985,10,86.39084599999478,86.39084599999478,0.01807529997313395,87.39138769998681,88.94208259996958,[-0.03333333333333333],[-0.07592592592592592],[1],[0],[0],[2.562724099960178],['target'],248650,001,2024-10-08_13h06.08.631,Vision search,2024.1.5,None,2024-10-08 13h06.18.197862 +0530,
46,0,46,0,88.96929919999093,,88.94639349996578,5,88.96929919999093,88.96929919999093,0.01647989999037236,89.973411199986,90.31013269996038,[-0.3037037037037037],[0.2935185185185185],[1],[0],[0],[1.3472140000085346],['target'],248650,001,2024-10-08_13h06.08.631,Vision search,2024.1.5,None,2024-10-08 13h06.18.197862 +0530,
47,0,47,0,90.36110519996146,,90.31555329996627,10,90.36110519996146,90.36110519996146,0.03190070000709966,91.37324809998972,92.05721030000132,[0.3148148148148148],[-0.11944444444444445],[1],[0],[0],[1.7102520000189543],['target'],248650,001,2024-10-08_13h06.08.631,Vision search,2024.1.5,None,2024-10-08 13h06.18.197862 +0530,
48,0,48,0,92.07745039998554,,92.05949559999863,5,92.07745039998554,92.07745039998554,0.010681200015824288,93.08958719996735,93.49121139995987,[0.000925925925925926],[-0.1],[1],[0],[0],[1.4204328000196256],['target'],248650,001,2024-10-08_13h06.08.631,Vision search,2024.1.5,None,2024-10-08 13h06.18.197862 +0530,
49,0,49,0,93.52148609998403,,93.49696659995243,5,93.52148609998403,93.52148609998403,0.01702220004517585,94.52264899999136,95.40926269994816,[0.32592592592592595],[0.39814814814814814],[1],[0],[0],[1.8951647999929264],['target'],248650,001,2024-10-08_13h06.08.631,Vision search,2024.1.5,None,2024-10-08 13h06.18.197862 +0530,
50,0,50,0,95.4532333999523,,95.4139157999889,10,95.4532333999523,95.4532333999523,0.029165800020564348,96.45575839997036,96.6565130999661,[0.037037037037037035],[0.3685185185185185],[1],[0],[0],[1.213885300036054],['target'],248650,001,2024-10-08_13h06.08.631,Vision search,2024.1.5,None,2024-10-08 13h06.18.197862 +0530,
51,0,51,0,96.69456879998324,,96.66008349996991,10,96.69456879998324,96.69456879998324,0.022316400019917637,97.70530549995601,98.27373279997846,[-0.000925925925925926],[-0.08333333333333333],[1],[0],[0],[1.591329900023993],[],248650,001,2024-10-08_13h06.08.631,Vision search,2024.1.5,None,2024-10-08 13h06.18.197862 +0530,
52,0,52,0,98.29830829997081,,98.27787159994477,5,98.29830829997081,98.29830829997081,0.01472279999870807,99.30513839999912,99.7075199999963,[0.47314814814814815],[0.014814814814814815],[1],[0],[0],[1.4151394000509754],['target'],248650,001,2024-10-08_13h06.08.631,Vision search,2024.1.5,None,2024-10-08 13h06.18.197862 +0530,
53,0,53,0,99.74128109996673,,99.71270709997043,5,99.74128109996673,99.74128109996673,0.017965000006370246,100.7544694999815,101.60626449994743,[-0.4527777777777778],[-0.36574074074074076],[1],[0],[0],[1.8758960000122897],['target'],248650,001,2024-10-08_13h06.08.631,Vision search,2024.1.5,None,2024-10-08 13h06.18.197862 +0530,
54,0,54,0,101.63465989998076,,101.61204389994964,5,101.63465989998076,101.63465989998076,0.015998899994883686,102.63741279998794,103.5890434999601,[0.37037037037037035],[-0.05185185185185185],[1],[0],[0],[1.9614398999838158],['target'],248650,001,2024-10-08_13h06.08.631,Vision search,2024.1.5,None,2024-10-08 13h06.18.197862 +0530,
55,0,55,0,103.620597000001,,103.59423589997459,5,103.620597000001,103.620597000001,0.01682980003533885,104.620463499974,107.33965259999968,[0.02962962962962963],[0.3527777777777778],[1],[0],[0],[3.728801299992483],['target'],248650,001,2024-10-08_13h06.08.631,Vision search,2024.1.5,None,2024-10-08 13h06.18.197862 +0530,
56,0,56,0,107.37222989997827,,107.34504549996927,5,107.37222989997827,107.37222989997827,0.01676440000301227,108.3862783999648,108.88879050000105,[0.018518518518518517],[-0.20555555555555555],[1],[0],[0],[1.5267560000065714],['target'],248650,001,2024-10-08_13h06.08.631,Vision search,2024.1.5,None,2024-10-08 13h06.18.197862 +0530,
57,0,57,0,108.91754399996717,,108.8942807999556,5,108.91754399996717,108.91754399996717,0.017296000034548342,109.91964949999237,110.95369399996707,[-0.5074074074074074],[-0.3509259259259259],[1],[0],[0],[2.0426013999967836],['target'],248650,001,2024-10-08_13h06.08.631,Vision search,2024.1.5,None,2024-10-08 13h06.18.197862 +0530,
58,0,58,0,110.98234429996228,,110.95819309999933,5,110.98234429996228,110.98234429996228,0.017606700013857335,111.9855653999839,112.67069279996213,[0.35],[0.26296296296296295],[1],[0],[0],[1.6953284000046551],['target'],248650,001,2024-10-08_13h06.08.631,Vision search,2024.1.5,None,2024-10-08 13h06.18.197862 +0530,
59,0,59,0,112.72450399998343,,112.67610429995693,10,112.72450399998343,112.72450399998343,0.031791499990504235,113.7349692999851,115.36916409997502,[0.30462962962962964],[-0.2175925925925926],[1],[0],[0],[2.6618599999928847],['target'],248650,001,2024-10-08_13h06.08.631,Vision search,2024.1.5,None,2024-10-08 13h06.18.197862 +0530,
60,0,60,0,115.40320929995505,,115.37299529998563,10,115.40320929995505,115.40320929995505,0.021117599972058088,116.41774479998276,117.31969199999003,[0.03148148148148148],[-0.003703703703703704],[1],[0],[0],[1.925800499971956],['target'],248650,001,2024-10-08_13h06.08.631,Vision search,2024.1.5,None,2024-10-08 13h06.18.197862 +0530,
61,0,61,0,117.36619359999895,,117.32429520000005,10,117.36619359999895,117.36619359999895,0.02643640001770109,118.36728409997886,121.11807709996356,[0.42314814814814816],[0.48148148148148145],[1],[0],[0],[3.7678747000172734],['target'],248650,001,2024-10-08_13h06.08.631,Vision search,2024.1.5,None,2024-10-08 13h06.18.197862 +0530,
62,0,62,0,121.15656819997821,,121.12141259998316,10,121.15656819997821,121.15656819997821,0.022498700011055917,122.16647809999995,123.45156709995354,[0.1398148148148148],[-0.3824074074074074],[1],[0],[0],[2.3078218000009656],['target'],248650,001,2024-10-08_13h06.08.631,Vision search,2024.1.5,None,2024-10-08 13h06.18.197862 +0530,
63,0,63,0,123.48213539994322,,123.45554349996382,5,123.48213539994322,123.48213539994322,0.016092400008346885,124.48283229995286,125.3511153999716,[-0.3472222222222222],[0.39444444444444443],[1],[0],[0],[1.879735000024084],['target'],248650,001,2024-10-08_13h06.08.631,Vision search,2024.1.5,None,2024-10-08 13h06.18.197862 +0530,
64,0,64,0,125.37806179997278,,125.35559639998246,5,125.37806179997278,125.37806179997278,0.015181800001300871,126.38217949995305,128.06775170000037,[-0.25],[0.49537037037037035],[1],[0],[0],[2.6970235999906436],['target'],248650,001,2024-10-08_13h06.08.631,Vision search,2024.1.5,None,2024-10-08 13h06.18.197862 +0530,
65,0,65,0,128.1223865999491,,128.07227759994566,10,128.1223865999491,128.1223865999491,0.031850799976382405,129.1317964999471,129.61677759996383,[0.2324074074074074],[0.2101851851851852],[1],[0],[0],[1.5129542999784462],['target'],248650,001,2024-10-08_13h06.08.631,Vision search,2024.1.5,None,2024-10-08 13h06.18.197862 +0530,
66,0,66,0,129.65691649995279,,129.62074249994475,10,129.65691649995279,129.65691649995279,0.02259730000514537,130.66468719998375,131.6325940999668,[0.25555555555555554],[-0.31666666666666665],[1],[0],[0],[1.9897109000012279],['target'],248650,001,2024-10-08_13h06.08.631,Vision search,2024.1.5,None,2024-10-08 13h06.18.197862 +0530,
67,0,67,0,131.6634508999996,,131.6352056999458,10,131.6634508999996,131.6634508999996,0.01853060000576079,132.66429779998725,134.1989615999628,[-0.17407407407407408],[0.3314814814814815],[1],[0],[0],[2.5453280999790877],['target'],248650,001,2024-10-08_13h06.08.631,Vision search,2024.1.5,None,2024-10-08 13h06.18.197862 +0530,
68,0,68,0,134.2299587999587,,134.20347670000046,5,134.2299587999587,134.2299587999587,0.016199100005906075,135.23056619998533,135.7662896999973,[-0.1398148148148148],[-0.020370370370370372],[1],[0],[0],[1.546976299956441],['target'],248650,001,2024-10-08_13h06.08.631,Vision search,2024.1.5,None,2024-10-08 13h06.18.197862 +0530,
69,0,69,0,135.7955515999929,,135.77075469994452,5,135.7955515999929,135.7955515999929,0.01647079997928813,136.79697469994426,137.93142629996873,[0.14351851851851852],[-0.1685185185185185],[1],[0],[0],[2.144579200015869],['target'],248650,001,2024-10-08_13h06.08.631,Vision search,2024.1.5,None,2024-10-08 13h06.18.197862 +0530,
70,0,70,0,137.95682179997675,,137.93620209995424,5,137.95682179997675,137.95682179997675,0.01445879996754229,138.96313649998046,139.41529239999363,[-0.018518518518518517],[-0.22685185185185186],[1],[0],[0],[1.4646259999717586],['target'],248650,001,2024-10-08_13h06.08.631,Vision search,2024.1.5,None,2024-10-08 13h06.18.197862 +0530,
71,0,71,0,139.46290909999516,,139.4211329999962,10,139.46290909999516,139.46290909999516,0.03300230001332238,140.46267519996036,141.51349609997123,[-0.43333333333333335],[-0.20092592592592592],[1],[0],[0],[2.0601202999823727],['target'],248650,001,2024-10-08_13h06.08.631,Vision search,2024.1.5,None,2024-10-08 13h06.18.197862 +0530,
72,0,72,0,141.53577739995671,,141.5166846999782,5,141.53577739995671,141.53577739995671,0.013546000001952052,142.54540899995482,143.3640105999657,[0.24537037037037038],[-0.13703703703703704],[1],[0],[0],[1.8338424999965355],['target'],248650,001,2024-10-08_13h06.08.631,Vision search,2024.1.5,None,2024-10-08 13h06.18.197862 +0530,
73,0,73,0,143.3916373999673,,143.36920339998323,5,143.3916373999673,143.3916373999673,0.015466900018509477,144.3956046999665,144.63119329995243,[-0.013888888888888888],[0.125],[1],[0],[0],[1.2464425999787636],['target'],248650,001,2024-10-08_13h06.08.631,Vision search,2024.1.5,None,2024-10-08 13h06.18.197862 +0530,
74,0,74,0,144.66108699998586,,144.63665129995206,5,144.66108699998586,144.66108699998586,0.0182312999968417,145.6606855999562,147.31359969999176,[0.049074074074074076],[-0.3453703703703704],[1],[0],[0],[2.659067699976731],['target'],248650,001,2024-10-08_13h06.08.631,Vision search,2024.1.5,None,2024-10-08 13h06.18.197862 +0530,
75,0,75,0,147.36501789995236,,147.3183849999914,10,147.36501789995236,147.36501789995236,0.030230099975597113,148.3776971999905,150.79483459994663,[-0.44166666666666665],[-0.3314814814814815],[1],[0],[0],[3.446857600007206],['target'],248650,001,2024-10-08_13h06.08.631,Vision search,2024.1.5,None,2024-10-08 13h06.18.197862 +0530,
76,0,76,0,150.8153125999961,,150.79818139999406,5,150.8153125999961,150.8153125999961,0.01226469996618107,151.8268297999748,152.52860699995654,[0.49166666666666664],[-0.03333333333333333],[1],[0],[0],[1.718472299980931],['target'],248650,001,2024-10-08_13h06.08.631,Vision search,2024.1.5,None,2024-10-08 13h06.18.197862 +0530,
77,0,77,0,152.5771787999547,,152.53214409999782,10,152.5771787999547,152.5771787999547,0.032846199988853186,153.57647859997815,157.29353269998683,[0.3472222222222222],[-0.30925925925925923],[1],[0],[0],[4.728823299985379],['target'],248650,001,2024-10-08_13h06.08.631,Vision search,2024.1.5,None,2024-10-08 13h06.18.197862 +0530,
78,0,78,0,157.32300099998247,,157.29739539994625,5,157.32300099998247,157.32300099998247,0.017470200022216886,158.32554019999225,158.99498979997588,[-0.14629629629629629],[0.3990740740740741],[1],[0],[0],[1.680718399991747],['target'],248650,001,2024-10-08_13h06.08.631,Vision search,2024.1.5,None,2024-10-08 13h06.18.197862 +0530,
79,0,79,0,159.02651209995383,,158.99986049998552,5,159.02651209995383,159.02651209995383,0.01769940002122894,160.04252929997165,160.89433869998902,[0.48148148148148145],[-0.44074074074074077],[1],[0],[0],[1.8770623999880627],['target'],248650,001,2024-10-08_13h06.08.631,Vision search,2024.1.5,None,2024-10-08 13h06.18.197862 +0530,
80,0,80,0,160.91988519998267,,160.89917179994518,5,160.91988519998267,160.91988519998267,0.015425899997353554,161.9251276999712,162.3935586999869,[-0.09351851851851851],[0.3287037037037037],[1],[0],[0],[1.4791952000232413],['target'],248650,001,2024-10-08_13h06.08.631,Vision search,2024.1.5,None,2024-10-08 13h06.18.197862 +0530,
81,0,81,0,162.42582799994852,,162.39828159997705,5,162.42582799994852,162.42582799994852,0.017458299989812076,163.42439499998,163.82818609999958,[-0.46574074074074073],[0.2777777777777778],[1],[0],[0],[1.4113727000076324],['target'],248650,001,2024-10-08_13h06.08.631,Vision search,2024.1.5,None,2024-10-08 13h06.18.197862 +0530,
82,0,82,0,163.86013609997462,,163.83420240000123,5,163.86013609997462,163.86013609997462,0.017854300036560744,164.87444339995272,166.05909319996135,[0.11018518518518519],[-0.45],[1],[0],[0],[2.2074651999864727],['target'],248650,001,2024-10-08_13h06.08.631,Vision search,2024.1.5,None,2024-10-08 13h06.18.197862 +0530,
83,0,83,0,166.08905549999326,,166.06362729996908,5,166.08905549999326,166.08905549999326,0.017538900021463633,167.0906268999679,167.49201459996402,[-0.3148148148148148],[0.08703703703703704],[1],[0],[0],[1.411276800034102],['target'],248650,001,2024-10-08_13h06.08.631,Vision search,2024.1.5,None,2024-10-08 13h06.18.197862 +0530,
84,0,84,0,167.5277031000005,,167.4962046999717,10,167.5277031000005,167.5277031000005,0.02283760003047064,168.54010909999488,169.0746616999968,[0.11296296296296296],[0.3425925925925926],[1],[0],[0],[1.555893799988553],['target'],248650,001,2024-10-08_13h06.08.631,Vision search,2024.1.5,None,2024-10-08 13h06.18.197862 +0530,
85,0,85,0,169.10157289996278,,169.07894069998292,5,169.10157289996278,169.10157289996278,0.01688120001927018,170.1062751999707,171.42468649998773,[0.4148148148148148],[-0.337037037037037],[1],[0],[0],[2.329226200003177],['target'],248650,001,2024-10-08_13h06.08.631,Vision search,2024.1.5,None,2024-10-08 13h06.18.197862 +0530,
86,0,86,0,171.45702379994327,,171.42961569997715,5,171.45702379994327,171.45702379994327,0.015714599983766675,172.4727607999812,173.1572843999602,[-0.4601851851851852],[0.000925925925925926],[1],[0],[0],[1.712231699959375],['target'],248650,001,2024-10-08_13h06.08.631,Vision search,2024.1.5,None,2024-10-08 13h06.18.197862 +0530,
87,0,87,0,173.1883912999765,,173.16210639994824,5,173.1883912999765,173.1883912999765,0.017264199967030436,174.18904829997336,174.6074029999436,[0.15462962962962962],[0.2953703703703704],[1],[0],[0],[1.4283211000147276],['target'],248650,001,2024-10-08_13h06.08.631,Vision search,2024.1.5,None,2024-10-08 13h06.18.197862 +0530,
88,0,88,0,174.6380040999502,,174.61201149999397,5,174.6380040999502,174.6380040999502,0.017002000007778406,175.63855299999705,176.37287859997014,[-0.23148148148148148],[0.31296296296296294],[1],[0],[0],[1.7444107999908738],['target'],248650,001,2024-10-08_13h06.08.631,Vision search,2024.1.5,None,2024-10-08 13h06.18.197862 +0530,
89,0,89,0,176.39893899997696,,176.37527339998633,5,176.39893899997696,176.39893899997696,0.01418190001277253,177.4048507999978,178.1900072999997,[-0.05092592592592592],[-0.1425925925925926],[1],[0],[0],[1.8007617999683134],['target'],248650,001,2024-10-08_13h06.08.631,Vision search,2024.1.5,None,2024-10-08 13h06.18.197862 +0530,
90,0,90,0,178.2361164999893,,178.19390539999586,10,178.2361164999893,178.2361164999893,0.020686600008048117,179.23776649998035,179.7390514999861,[0.21388888888888888],[0.2537037037037037],[1],[0],[0],[1.5248431999934837],['target'],248650,001,2024-10-08_13h06.08.631,Vision search,2024.1.5,None,2024-10-08 13h06.18.197862 +0530,
91,0,91,0,179.7789335999987,,179.74191769998288,10,179.7789335999987,179.7789335999987,0.018925400043372065,180.787541699945,181.93862659996375,[0.001851851851851852],[0.058333333333333334],[1],[0],[0],[2.1778820999898016],[],248650,001,2024-10-08_13h06.08.631,Vision search,2024.1.5,None,2024-10-08 13h06.18.197862 +0530,
92,0,92,0,181.9822616999736,,181.94225159997586,10,181.9822616999736,181.9822616999736,0.021447099978104234,182.9873611999792,184.7719928000006,[0.10740740740740741],[-0.24259259259259258],[1],[0],[0],[2.808257800003048],['target'],248650,001,2024-10-08_13h06.08.631,Vision search,2024.1.5,None,2024-10-08 13h06.18.197862 +0530,
93,0,93,0,184.81194019998657,,184.77598769997712,10,184.81194019998657,184.81194019998657,0.02720239997142926,185.81969349994324,186.28758999996353,[0.44537037037037036],[0.11574074074074074],[1],[0],[0],[1.4848158999811858],['target'],248650,001,2024-10-08_13h06.08.631,Vision search,2024.1.5,None,2024-10-08 13h06.18.197862 +0530,
94,0,94,0,186.31019379995996,,186.29082529997686,5,186.31019379995996,186.31019379995996,0.013002100051380694,187.31935769994743,187.80616179999197,[0.42962962962962964],[-0.11203703703703703],[1],[0],[0],[1.5014445999986492],['target'],248650,001,2024-10-08_13h06.08.631,Vision search,2024.1.5,None,2024-10-08 13h06.18.197862 +0530,
95,0,95,0,187.84258019999834,,187.8114153999486,5,187.84258019999834,187.84258019999834,0.01853920001303777,188.85267389996443,189.60413689998677,[-0.34074074074074073],[0.2324074074074074],[1],[0],[0],[1.7745939000160433],['target'],248650,001,2024-10-08_13h06.08.631,Vision search,2024.1.5,None,2024-10-08 13h06.18.197862 +0530,
96,0,96,0,189.65488629997708,,189.6081903000013,10,189.65488629997708,189.65488629997708,0.03227709996281192,190.66874899994582,191.6538109999965,[-0.4648148148148148],[0.14907407407407408],[1],[0],[0],[2.0133155999938026],['target'],248650,001,2024-10-08_13h06.08.631,Vision search,2024.1.5,None,2024-10-08 13h06.18.197862 +0530,
97,0,97,0,191.6906460999744,,191.65845629997784,5,191.6906460999744,191.6906460999744,0.018788999994285405,192.7016134999576,193.40469209995354,[0.3824074074074074],[-0.17592592592592593],[1],[0],[0],[1.7272501999977976],['target'],248650,001,2024-10-08_13h06.08.631,Vision search,2024.1.5,None,2024-10-08 13h06.18.197862 +0530,
98,0,98,0,193.45986029994674,,193.4100167999859,10,193.45986029994674,193.45986029994674,0.032062600017525256,194.46794529998442,195.36895239999285,[0.11388888888888889],[0.37777777777777777],[1],[0],[0],[1.9274100000038743],['target'],248650,001,2024-10-08_13h06.08.631,Vision search,2024.1.5,None,2024-10-08 13h06.18.197862 +0530,
99,0,99,0,195.42021099996055,,195.3723337999545,10,195.42021099996055,195.42021099996055,0.033166599983815104,196.43418119999114,198.98519529995974,[0.006481481481481481],[0.462037037037037],[1],[0],[0],[3.579804500041064],[],248650,001,2024-10-08_13h06.08.631,Vision search,2024.1.5,None,2024-10-08 13h06.18.197862 +0530,
100,0,100,0,199.0131856999942,,198.9889766999986,5,199.0131856999942,199.0131856999942,0.013915299961809069,200.01688839995768,200.66913519997615,[-0.45925925925925926],[0.4009259259259259],[1],[0],[0],[1.6662477999925613],['target'],248650,001,2024-10-08_13h06.08.631,Vision search,2024.1.5,None,2024-10-08 13h06.18.197862 +0530,
101,0,101,0,200.71872869995423,,200.6738151999889,10,200.71872869995423,200.71872869995423,0.031165899999905378,201.73298089997843,203.56736879999517,[-0.2851851851851852],[-0.4351851851851852],[1],[0],[0],[2.8628210000460967],['target'],248650,001,2024-10-08_13h06.08.631,Vision search,2024.1.5,None,2024-10-08 13h06.18.197862 +0530,
102,0,102,0,203.60067679994972,,203.57205829996383,5,203.60067679994972,203.60067679994972,0.017045299988240004,204.61591159994714,205.71711519995006,[-0.25925925925925924],[-0.33796296296296297],[1],[0],[0],[2.1279400999774225],['target'],248650,001,2024-10-08_13h06.08.631,Vision search,2024.1.5,None,2024-10-08 13h06.18.197862 +0530,
103,0,103,0,205.74685469997348,,205.721913699992,5,205.74685469997348,205.74685469997348,0.017304499982856214,206.74868029996287,207.38378749997355,[0.30925925925925923],[0.4703703703703704],[1],[0],[0],[1.6450267999898642],['target'],248650,001,2024-10-08_13h06.08.631,Vision search,2024.1.5,None,2024-10-08 13h06.18.197862 +0530,
104,0,104,0,207.41959389997646,,207.38853359996574,10,207.41959389997646,207.41959389997646,0.023353800002951175,208.43191579997074,210.06561389996205,[0.25833333333333336],[-0.44814814814814813],[1],[0],[0],[2.6543449999880977],['target'],248650,001,2024-10-08_13h06.08.631,Vision search,2024.1.5,None,2024-10-08 13h06.18.197862 +0530,
105,0,105,0,210.0866944999434,,210.06805469997926,5,210.0866944999434,210.0866944999434,0.011438699963036925,211.09784049994778,212.5668920999742,[-0.10740740740740741],[-0.1287037037037037],[1],[0],[0],[2.487288100004662],['target'],248650,001,2024-10-08_13h06.08.631,Vision search,2024.1.5,None,2024-10-08 13h06.18.197862 +0530,
106,0,106,0,212.59754799999064,,212.57206489995588,5,212.59754799999064,212.59754799999064,0.01676569995470345,213.612994599971,213.9327603999991,[0.4703703703703704],[0.06944444444444445],[1],[0],[0],[1.3437636999879032],['target'],248650,001,2024-10-08_13h06.08.631,Vision search,2024.1.5,None,2024-10-08 13h06.18.197862 +0530,
107,0,107,0,213.9838484999491,,213.93810559995472,10,213.9838484999491,213.9838484999491,0.03193410002859309,214.99674169998616,215.7149668999482,[0.2814814814814815],[0.12314814814814815],[1],[0],[0],[1.7456407999852672],['target'],248650,001,2024-10-08_13h06.08.631,Vision search,2024.1.5,None,2024-10-08 13h06.18.197862 +0530,
108,0,108,0,215.7370139999548,,215.71771409997018,5,215.7370139999548,215.7370139999548,0.011233100027311593,216.7465684999479,217.66538679995574,[0.27314814814814814],[-0.425],[1],[0],[0],[1.9363052999833599],['target'],248650,001,2024-10-08_13h06.08.631,Vision search,2024.1.5,None,2024-10-08 13h06.18.197862 +0530,
109,0,109,0,217.70590279996395,,217.67019709997112,10,217.70590279996395,217.70590279996395,0.028064899961464107,218.71250189997954,219.86427159997402,[-0.43148148148148147],[-0.037037037037037035],[1],[0],[0],[2.1663063999731094],['target'],248650,001,2024-10-08_13h06.08.631,Vision search,2024.1.5,None,2024-10-08 13h06.18.197862 +0530,
110,0,110,0,219.89507799997227,,219.8687483999529,5,219.89507799997227,219.89507799997227,0.018320500035770237,220.89618209999753,221.6972593999817,[-0.25092592592592594],[-0.2935185185185185],[1],[0],[0],[1.8108062000246719],['target'],248650,001,2024-10-08_13h06.08.631,Vision search,2024.1.5,None,2024-10-08 13h06.18.197862 +0530,
111,0,111,0,221.73145079996902,,221.7012985999463,10,221.73145079996902,221.73145079996902,0.022183699999004602,222.74537429999327,223.64632559998427,[-0.34629629629629627],[0.41759259259259257],[1],[0],[0],[1.9231708000297658],['target'],248650,001,2024-10-08_13h06.08.631,Vision search,2024.1.5,None,2024-10-08 13h06.18.197862 +0530,
112,0,112,0,223.6673617999768,,223.6497564999736,5,223.6673617999768,223.6673617999768,0.012787499988917261,224.67840099998284,225.6468866999494,[-0.22407407407407406],[-0.37407407407407406],[1],[0],[0],[1.9842984999995679],['target'],248650,001,2024-10-08_13h06.08.631,Vision search,2024.1.5,None,2024-10-08 13h06.18.197862 +0530,
113,0,113,0,225.68183429999044,,225.65070809994359,10,225.68183429999044,225.68183429999044,0.022320999996736646,226.69456340000033,228.3620356999454,[0.3138888888888889],[0.2574074074074074],[1],[0],[0],[2.6890304999542423],['target'],248650,001,2024-10-08_13h06.08.631,Vision search,2024.1.5,None,2024-10-08 13h06.18.197862 +0530,
114,0,114,0,228.40829049999593,,228.3644357000012,10,228.40829049999593,228.40829049999593,0.026865299965720624,229.41049949999433,230.07903609995265,[-0.18981481481481483],[-0.11203703703703703],[1],[0],[0],[1.6875309000024572],['target'],248650,001,2024-10-08_13h06.08.631,Vision search,2024.1.5,None,2024-10-08 13h06.18.197862 +0530,
115,0,115,0,230.13499569997657,,230.08345659996849,10,230.13499569997657,230.13499569997657,0.03443659999174997,231.14335499994922,231.42857529997127,[-0.2712962962962963],[-0.14074074074074075],[1],[0],[0],[1.3110110000125133],['target'],248650,001,2024-10-08_13h06.08.631,Vision search,2024.1.5,None,2024-10-08 13h06.18.197862 +0530,
116,0,116,0,231.47206639999058,,231.43236109998543,10,231.47206639999058,231.47206639999058,0.027682700019795448,232.47655689995736,232.7289613999892,[-0.21944444444444444],[0.28425925925925927],[1],[0],[0],[1.2686478999676183],['target'],248650,001,2024-10-08_13h06.08.631,Vision search,2024.1.5,None,2024-10-08 13h06.18.197862 +0530,
117,0,117,0,232.76357799995458,,232.7333951999899,5,232.76357799995458,232.76357799995458,0.017956099996808916,233.77626959996996,234.21144829998957,[0.30925925925925923],[0.3037037037037037],[1],[0],[0],[1.460567100031767],['target'],248650,001,2024-10-08_13h06.08.631,Vision search,2024.1.5,None,2024-10-08 13h06.18.197862 +0530,
118,0,118,0,234.2380465999595,,234.2149717999855,5,234.2380465999595,234.2380465999595,0.013371000008191913,235.24279799999204,235.7439335999661,[0.21851851851851853],[0.05277777777777778],[1],[0],[0],[1.5158009000006132],['target'],248650,001,2024-10-08_13h06.08.631,Vision search,2024.1.5,None,2024-10-08 13h06.18.197862 +0530,
119,0,119,0,235.7889286999707,,235.74857249995694,10,235.7889286999707,235.7889286999707,0.02564769994933158,236.79218569997465,237.17722759995377,[-0.1638888888888889],[0.06111111111111111],[1],[0],[0],[1.4032957999734208],['target'],248650,001,2024-10-08_13h06.08.631,Vision search,2024.1.5,None,2024-10-08 13h06.18.197862 +0530,
120,0,120,0,237.2120696999482,,237.18167979997816,5,237.2120696999482,237.2120696999482,0.01764409994939342,238.22572429996217,238.9453339999891,[0.18518518518518517],[-0.375],[1],[0],[0],[1.7458915999741293],[],248650,001,2024-10-08_13h06.08.631,Vision search,2024.1.5,None,2024-10-08 13h06.18.197862 +0530,
121,0,121,0,239.00358349998714,,238.95028369995998,10,239.00358349998714,239.00358349998714,0.03475230000913143,240.00838569999905,240.87591969995992,[-0.2898148148148148],[-0.4203703703703704],[1],[0],[0],[1.8913837000145577],['target'],248650,001,2024-10-08_13h06.08.631,Vision search,2024.1.5,None,2024-10-08 13h06.18.197862 +0530,
122,0,122,0,240.90562599996338,,240.87890999997035,10,240.90562599996338,240.90562599996338,0.018967100011650473,241.9077875999501,244.62530699995114,[0.2851851851851852],[-0.21203703703703702],[1],[0],[0],[3.727582799969241],['target'],248650,001,2024-10-08_13h06.08.631,Vision search,2024.1.5,None,2024-10-08 13h06.18.197862 +0530,
123,0,123,0,244.671316699998,,244.62883149995469,10,244.671316699998,244.671316699998,0.027986300003249198,245.67381719994592,246.50841699994635,[-0.41203703703703703],[0.4203703703703704],[1],[0],[0],[1.8518707000184804],['target'],248650,001,2024-10-08_13h06.08.631,Vision search,2024.1.5,None,2024-10-08 13h06.18.197862 +0530,
124,0,124,0,246.53168019995792,,246.51184120000107,5,246.53168019995792,246.53168019995792,0.012500799959525466,247.54013159999158,248.409259499982,[-0.016666666666666666],[0.37592592592592594],[1],[0],[0],[1.8849012999562547],['target'],248650,001,2024-10-08_13h06.08.631,Vision search,2024.1.5,None,2024-10-08 13h06.18.197862 +0530,
125,0,125,0,248.4386510999757,,248.41402739996556,5,248.4386510999757,248.4386510999757,0.0174859999679029,249.43960309994873,249.97576479997952,[0.2675925925925926],[-0.12037037037037036],[1],[0],[0],[1.544333700032439],['target'],248650,001,2024-10-08_13h06.08.631,Vision search,2024.1.5,None,2024-10-08 13h06.18.197862 +0530,
126,0,126,0,250.00649859994883,,249.98096819996135,5,250.00649859994883,250.00649859994883,0.016283400007523596,251.00570009998046,251.10824909998337,[-0.09814814814814815],[0.3175925925925926],[1],[0],[0],[1.1111570000066422],['target'],248650,001,2024-10-08_13h06.08.631,Vision search,2024.1.5,None,2024-10-08 13h06.18.197862 +0530,
127,0,127,0,251.15165590000106,,251.11417939997045,10,251.15165590000106,251.15165590000106,0.026131700025871396,252.15558719995897,253.27316149999388,[0.31203703703703706],[0.5],[1],[0],[0],[2.13372459996026],[],248650,001,2024-10-08_13h06.08.631,Vision search,2024.1.5,None,2024-10-08 13h06.18.197862 +0530,
128,0,128,0,253.29915679997066,,253.27569309994578,5,253.29915679997066,253.29915679997066,0.0106600999715738,254.30569979996653,255.25702449999517,[0.33240740740740743],[-0.3824074074074074],[1],[0],[0],[1.9704291999805719],['target'],248650,001,2024-10-08_13h06.08.631,Vision search,2024.1.5,None,2024-10-08 13h06.18.197862 +0530,
129,0,129,0,255.28987079998478,,255.26147669996135,5,255.28987079998478,255.28987079998478,0.015559700026642531,256.3045497999992,256.440357399988,[0.016666666666666666],[0.12685185185185185],[1],[0],[0],[1.1633053999976255],['target'],248650,001,2024-10-08_13h06.08.631,Vision search,2024.1.5,None,2024-10-08 13h06.18.197862 +0530,
130,0,130,0,256.499583399971,,256.4451155999559,10,256.499583399971,256.499583399971,0.03277479996904731,257.50498709996464,258.35610429994995,[0.46296296296296297],[0.31851851851851853],[1],[0],[0],[1.878545200044755],['target'],248650,001,2024-10-08_13h06.08.631,Vision search,2024.1.5,None,2024-10-08 13h06.18.197862 +0530,
131,0,131,0,258.38810509996256,,258.3600292999763,5,258.38810509996256,258.38810509996256,0.013934899994637817,259.38743039994733,260.04004110000096,[0.33055555555555555],[0.1574074074074074],[1],[0],[0],[1.665964099986013],['target'],248650,001,2024-10-08_13h06.08.631,Vision search,2024.1.5,None,2024-10-08 13h06.18.197862 +0530,
132,0,132,0,260.0803619999788,,260.04566299996804,10,260.0803619999788,260.0803619999788,0.02619010000489652,261.08713469997747,262.52156029996695,[0.12129629629629629],[0.48055555555555557],[1],[0],[0],[2.450119099987205],['target'],248650,001,2024-10-08_13h06.08.631,Vision search,2024.1.5,None,2024-10-08 13h06.18.197862 +0530,
133,0,133,0,262.5467377999448,,262.52585259999614,5,262.5467377999448,262.5467377999448,0.014501300000119954,263.553073499992,263.68981599999825,[0.11296296296296296],[0.325],[1],[0],[0],[1.148797600006219],['target'],248650,001,2024-10-08_13h06.08.631,Vision search,2024.1.5,None,2024-10-08 13h06.18.197862 +0530,
134,0,134,0,263.7209519999451,,263.6942069999641,5,263.7209519999451,263.7209519999451,0.017128399980720133,264.73599289997946,265.3879686999717,[0.4759259259259259],[-0.4222222222222222],[1],[0],[0],[1.6770010000327602],['target'],248650,001,2024-10-08_13h06.08.631,Vision search,2024.1.5,None,2024-10-08 13h06.18.197862 +0530,
135,0,135,0,265.43533489998663,,265.3920812999713,10,265.43533489998663,265.43533489998663,0.023823800031095743,266.4363255999633,267.3539396999986,[-0.39814814814814814],[0.46296296296296297],[1],[0],[0],[1.93827699997928],['target'],248650,001,2024-10-08_13h06.08.631,Vision search,2024.1.5,None,2024-10-08 13h06.18.197862 +0530,
136,0,136,0,267.38013379997574,,267.3585589999566,5,267.38013379997574,267.38013379997574,0.014458100020419806,268.3854501999449,268.9374743999797,[-0.43796296296296294],[0.2833333333333333],[1],[0],[0],[1.5647610999876633],['target'],248650,001,2024-10-08_13h06.08.631,Vision search,2024.1.5,None,2024-10-08 13h06.18.197862 +0530,
137,0,137,0,268.98785219999263,,268.9416053999448,10,268.98785219999263,268.98785219999263,0.0316970000276342,270.0018715999904,271.1207653999445,[0.49074074074074076],[-0.3527777777777778],[1],[0],[0],[2.1475187999894843],['target'],248650,001,2024-10-08_13h06.08.631,Vision search,2024.1.5,None,2024-10-08 13h06.18.197862 +0530,
138,0,138,0,271.1495812999783,,271.1255215999554,5,271.1495812999783,271.1495812999783,0.016219399985857308,272.15140699996846,272.7863473999896,[0.13796296296296295],[-0.4],[1],[0],[0],[1.6449891999945976],['target'],248650,001,2024-10-08_13h06.08.631,Vision search,2024.1.5,None,2024-10-08 13h06.18.197862 +0530,
139,0,139,0,272.8249457999482,,272.7917788999621,10,272.8249457999482,272.8249457999482,0.021409499982837588,273.8334950999706,274.0523705999949,[-0.013888888888888888],[-0.24166666666666667],[1],[0],[0],[1.2399068000377156],['target'],248650,001,2024-10-08_13h06.08.631,Vision search,2024.1.5,None,2024-10-08 13h06.18.197862 +0530,
140,0,140,0,274.0715216999524,,274.0551141999895,5,274.0715216999524,274.0715216999524,0.010481500008609146,275.0843578999629,275.970578599954,[-0.2898148148148148],[-0.3648148148148148],[1],[0],[0],[1.9045200999826193],['target'],248650,001,2024-10-08_13h06.08.631,Vision search,2024.1.5,None,2024-10-08 13h06.18.197862 +0530,
141,0,141,0,275.9997906999779,,275.97550959995715,5,275.9997906999779,275.9997906999779,0.016574000008404255,277.0009504999616,277.0689636999741,[-0.28055555555555556],[0.041666666666666664],[1],[0],[0],[1.077394500025548],['target'],248650,001,2024-10-08_13h06.08.631,Vision search,2024.1.5,None,2024-10-08 13h06.18.197862 +0530,
142,0,142,0,277.10082679998595,,277.0736699999543,5,277.10082679998595,277.10082679998595,0.014609900012146682,278.1002281999681,278.43556610000087,[-0.4046296296296296],[0.38981481481481484],[1],[0],[0],[1.3475618999800645],['target'],248650,001,2024-10-08_13h06.08.631,Vision search,2024.1.5,None,2024-10-08 13h06.18.197862 +0530,
143,0,143,0,278.48221499996725,,278.4409725999576,10,278.48221499996725,278.48221499996725,0.024447000003419816,279.48304399999324,280.6182021999848,[-0.09259259259259259],[-0.39537037037037037],[1],[0],[0],[2.153341500030365],['target'],248650,001,2024-10-08_13h06.08.631,Vision search,2024.1.5,None,2024-10-08 13h06.18.197862 +0530,
144,0,144,0,280.66170919995056,,280.6222224999801,10,280.66170919995056,280.66170919995056,0.029434599971864372,281.6659033999895,282.8343592999736,[-0.26296296296296295],[-0.43333333333333335],[1],[0],[0],[2.1831443999544717],['target'],248650,001,2024-10-08_13h06.08.631,Vision search,2024.1.5,None,2024-10-08 13h06.18.197862 +0530,
145,0,145,0,282.8816364999511,,282.8372754000011,10,282.8816364999511,282.8816364999511,0.028511699987575412,283.8819452999742,284.50008499994874,[-0.43796296296296294],[-0.26296296296296295],[1],[0],[0],[1.6344368999707513],['target'],248650,001,2024-10-08_13h06.08.631,Vision search,2024.1.5,None,2024-10-08 13h06.18.197862 +0530,
146,0,146,0,284.54397069994593,,284.5028671999462,10,284.54397069994593,284.54397069994593,0.020950499980244786,285.5486381999799,286.26663989998633,[-0.225],[-0.1259259259259259],[1],[0],[0],[1.7429352999897674],['target'],248650,001,2024-10-08_13h06.08.631,Vision search,2024.1.5,None,2024-10-08 13h06.18.197862 +0530,
147,0,147,0,286.31331669999054,,286.2690954999998,10,286.31331669999054,286.31331669999054,0.019791999948211014,287.31496939994395,288.93339029996423,[0.14351851851851852],[-0.2490740740740741],[1],[0],[0],[2.643930900027044],['target'],248650,001,2024-10-08_13h06.08.631,Vision search,2024.1.5,None,2024-10-08 13h06.18.197862 +0530,
148,0,148,0,289.00409389997367,,288.93794259999413,10,289.00409389997367,289.00409389997367,0.04014409997034818,290.0142435999587,291.1660734999459,[0.20185185185185187],[0.41203703703703703],[1],[0],[0],[2.188000899972394],['target'],248650,001,2024-10-08_13h06.08.631,Vision search,2024.1.5,None,2024-10-08 13h06.18.197862 +0530,
149,0,149,0,291.2205322999507,,291.17081099998904,10,291.2205322999507,291.2205322999507,0.025336000020615757,292.2307540999609,292.94954069994856,[0.2212962962962963],[-0.22037037037037038],[1],[0],[0],[1.7534637000062503],['target'],248650,001,2024-10-08_13h06.08.631,Vision search,2024.1.5,None,2024-10-08 13h06.18.197862 +0530,
150,0,150,0,292.9951666999841,,292.9537588999956,10,292.9951666999841,292.9951666999841,0.023535999993328005,293.99671949999174,294.5478630999569,[-0.24814814814814815],[-0.012962962962962963],[1],[0],[0],[1.5709532999899238],['target'],248650,001,2024-10-08_13h06.08.631,Vision search,2024.1.5,None,2024-10-08 13h06.18.197862 +0530,
151,0,151,0,294.58443549997173,,294.5512129999697,10,294.58443549997173,294.58443549997173,0.019744099990930408,295.59788219997426,295.9813173000002,[-0.29074074074074074],[0.3425925925925926],[1],[0],[0],[1.4106195000349544],['target'],248650,001,2024-10-08_13h06.08.631,Vision search,2024.1.5,None,2024-10-08 13h06.18.197862 +0530,
152,0,152,0,296.01215659995796,,295.9858998999698,5,296.01215659995796,296.01215659995796,0.01522629999089986,297.0126320999698,297.6480928999954,[-0.2833333333333333],[-0.1537037037037037],[1],[0],[0],[1.6471843000035733],['target'],248650,001,2024-10-08_13h06.08.631,Vision search,2024.1.5,None,2024-10-08 13h06.18.197862 +0530,
153,0,153,0,297.6792392999632,,297.6518683999893,5,297.6792392999632,297.6792392999632,0.01760580000700429,298.6790740999859,299.54903189995093,[0.22314814814814815],[0.15462962962962962],[1],[0],[0],[1.879101599974092],['target'],248650,001,2024-10-08_13h06.08.631,Vision search,2024.1.5,None,2024-10-08 13h06.18.197862 +0530,
154,0,154,0,299.60723989998223,,299.55401259998325,10,299.60723989998223,299.60723989998223,0.026293099974282086,300.612165599945,301.4147058999515,[0.425],[-0.009259259259259259],[1],[0],[0],[1.8346165000111796],['target'],248650,001,2024-10-08_13h06.08.631,Vision search,2024.1.5,None,2024-10-08 13h06.18.197862 +0530,
155,0,155,0,301.4558953999658,,301.41939499997534,10,301.4558953999658,301.4558953999658,0.02662419999251142,302.46165889996337,303.01420129998587,[-0.20925925925925926],[0.24722222222222223],[1],[0],[0],[1.5681902000214905],['target'],248650,001,2024-10-08_13h06.08.631,Vision search,2024.1.5,None,2024-10-08 13h06.18.197862 +0530,
156,0,156,0,303.06008829997154,,303.0179174999939,10,303.06008829997154,303.06008829997154,0.030349900014698505,304.0611736999708,305.1289069999475,[0.28425925925925927],[0.022222222222222223],[1],[0],[0],[2.0810502999811433],['target'],248650,001,2024-10-08_13h06.08.631,Vision search,2024.1.5,None,2024-10-08 13h06.18.197862 +0530,
157,0,157,0,305.1815714999684,,305.13159039994935,10,305.1815714999684,305.1815714999684,0.028964700002688915,306.1941934999777,308.0789764999645,[-0.030555555555555555],[-0.34444444444444444],[1],[0],[0],[2.9185229999711737],['target'],248650,001,2024-10-08_13h06.08.631,Vision search,2024.1.5,None,2024-10-08 13h06.18.197862 +0530,
158,0,158,0,308.12202809995506,,308.0833217999898,10,308.12202809995506,308.12202809995506,0.028650199994444847,309.1266881999909,309.9781150999479,[-0.49166666666666664],[0.12685185185185185],[1],[0],[0],[1.8665855000144802],['target'],248650,001,2024-10-08_13h06.08.631,Vision search,2024.1.5,None,2024-10-08 13h06.18.197862 +0530,
159,0,159,0,310.0088400999666,,309.98143469996285,5,310.0088400999666,310.0088400999666,0.015922499995213002,311.0099627999589,311.47988539998187,[-0.028703703703703703],[-0.28425925925925927],[1],[0],[0],[1.4824844999820925],['target'],248650,001,2024-10-08_13h06.08.631,Vision search,2024.1.5,None,2024-10-08 13h06.18.197862 +0530,
160,0,160,0,311.5138642999809,,311.48370969999814,5,311.5138642999809,311.5138642999809,0.018277399998623878,312.52613149996614,312.7949440999655,[-0.3194444444444444],[0.03981481481481482],[1],[0],[0],[1.2928550000069663],['target'],248650,001,2024-10-08_13h06.08.631,Vision search,2024.1.5,None,2024-10-08 13h06.18.197862 +0530,
161,0,161,0,312.8458437999943,,312.79974269995,10,312.8458437999943,312.8458437999943,0.03318199998466298,313.85815259994706,314.06078579998575,[-0.2611111111111111],[0.014814814814814815],[1],[0],[0],[1.2284515000064857],['target'],248650,001,2024-10-08_13h06.08.631,Vision search,2024.1.5,None,2024-10-08 13h06.18.197862 +0530,
162,0,162,0,314.106544499984,,314.0644458999741,10,314.106544499984,314.106544499984,0.02708069997606799,315.10879869997734,316.0436822999618,[0.3287037037037037],[0.44166666666666665],[1],[0],[0],[1.952281700039748],['target'],248650,001,2024-10-08_13h06.08.631,Vision search,2024.1.5,None,2024-10-08 13h06.18.197862 +0530,
163,0,163,0,316.10270849999506,,316.04770719999215,10,316.10270849999506,316.10270849999506,0.032433099986519665,317.10848849994363,317.7931741999928,[0.003703703703703704],[-0.1935185185185185],[1],[0],[0],[1.7134250000235625],['target'],248650,001,2024-10-08_13h06.08.631,Vision search,2024.1.5,None,2024-10-08 13h06.18.197862 +0530,
164,0,164,0,317.8287530999514,,317.79734059999464,5,317.8287530999514,317.8287530999514,0.015387799998279661,318.8417124999687,319.1264071999467,[0.09722222222222222],[0.287962962962963],[1],[0],[0],[1.3140922000166029],['target'],248650,001,2024-10-08_13h06.08.631,Vision search,2024.1.5,None,2024-10-08 13h06.18.197862 +0530,
165,0,165,0,319.15451999998186,,319.129867199983,5,319.15451999998186,319.15451999998186,0.01237419998506084,320.15778649999993,320.526247199974,[0.337037037037037],[0.2212962962962963],[1],[0],[0],[1.3841443000128493],['target'],248650,001,2024-10-08_13h06.08.631,Vision search,2024.1.5,None,2024-10-08 13h06.18.197862 +0530,
166,0,166,0,320.5622820999706,,320.5315394999925,5,320.5622820999706,320.5622820999706,0.017595799989067018,321.5744782999973,321.7432031999924,[-0.053703703703703705],[0.39444444444444443],[1],[0],[0],[1.194120700005442],['target'],248650,001,2024-10-08_13h06.08.631,Vision search,2024.1.5,None,2024-10-08 13h06.18.197862 +0530,
167,0,167,0,321.79786239995155,,321.7482594999601,10,321.79786239995155,321.79786239995155,0.033904799958691,322.8072821999667,324.25888969999505,[-0.4287037037037037],[-0.3351851851851852],[1],[0],[0],[2.476865800039377],['target'],248650,001,2024-10-08_13h06.08.631,Vision search,2024.1.5,None,2024-10-08 13h06.18.197862 +0530,
168,0,168,0,324.28588159999344,,324.26373149995925,5,324.28588159999344,324.28588159999344,0.016493600036483258,325.2904557999573,326.24260109994793,[0.14166666666666666],[0.058333333333333334],[1],[0],[0],[1.9625462999683805],['target'],248650,001,2024-10-08_13h06.08.631,Vision search,2024.1.5,None,2024-10-08 13h06.18.197862 +0530,
169,0,169,0,326.3009097999893,,326.2466978999437,10,326.3009097999893,326.3009097999893,0.03104109998093918,327.3489443999715,327.2907716999762,[0.1259259259259259],[0.06759259259259259],[1],[0],[0],[1.0136327000218444],['target'],248650,001,2024-10-08_13h06.08.631,Vision search,2024.1.5,None,2024-10-08 13h06.18.197862 +0530,
170,0,170,0,327.3489443999715,,327.29426969995257,10,327.3489443999715,327.3489443999715,0.03185600001597777,328.35600029997295,328.9250026999507,[0.007407407407407408],[-0.18611111111111112],[1],[0],[0],[1.598894399998244],['target'],248650,001,2024-10-08_13h06.08.631,Vision search,2024.1.5,None,2024-10-08 13h06.18.197862 +0530,
171,0,171,0,329.00063869997393,,328.92890909995185,5,329.00063869997393,329.00063869997393,0.05968780000694096,330.0058406999451,330.607591899985,[0.4111111111111111],[-0.3509259259259259],[1],[0],[0],[1.619165799987968],['target'],248650,001,2024-10-08_13h06.08.631,Vision search,2024.1.5,None,2024-10-08 13h06.18.197862 +0530,
172,0,172,0,330.64322219998576,,330.61280139995506,5,330.64322219998576,330.64322219998576,0.016740299994125962,331.655481499969,332.0898949999828,[-0.3138888888888889],[0.15462962962962962],[1],[0],[0],[1.4607530999928713],['target'],248650,001,2024-10-08_13h06.08.631,Vision search,2024.1.5,None,2024-10-08 13h06.18.197862 +0530,
173,0,173,0,332.1404886999517,,332.09392839996144,10,332.1404886999517,332.1404886999517,0.021305100002791733,333.1554427999654,333.8732353999512,[0.2462962962962963],[0.23333333333333334],[1],[0],[0],[1.7583134999731556],['target'],248650,001,2024-10-08_13h06.08.631,Vision search,2024.1.5,None,2024-10-08 13h06.18.197862 +0530,
174,0,174,0,333.9263315999997,,333.87746729998617,10,333.9263315999997,333.9263315999997,0.028404599986970425,334.93804519996047,335.3893941999995,[-0.12407407407407407],[-0.175],[1],[0],[0],[1.484107700001914],['target'],248650,001,2024-10-08_13h06.08.631,Vision search,2024.1.5,None,2024-10-08 13h06.18.197862 +0530,
175,0,175,0,335.4124751999625,,335.3921941999579,5,335.4124751999625,335.4124751999625,0.011591500020585954,336.4211329999962,336.9899892999674,[0.1574074074074074],[0.05462962962962963],[1],[0],[0],[1.5861595000023954],['target'],248650,001,2024-10-08_13h06.08.631,Vision search,2024.1.5,None,2024-10-08 13h06.18.197862 +0530,
176,0,176,0,337.0439500999637,,336.9942626999691,10,337.0439500999637,337.0439500999637,0.03319100005319342,338.05434589996,338.92194289999316,[-0.2777777777777778],[0.39166666666666666],[1],[0],[0],[1.8950154000194743],['target'],248650,001,2024-10-08_13h06.08.631,Vision search,2024.1.5,None,2024-10-08 13h06.18.197862 +0530,
177,0,177,0,338.9802614999935,,338.9263861999498,10,338.9802614999935,338.9802614999935,0.031630200042854995,339.9870959999971,340.9892519999994,[-0.2074074074074074],[-0.12962962962962962],[1],[0],[0],[2.031481000012718],['target'],248650,001,2024-10-08_13h06.08.631,Vision search,2024.1.5,None,2024-10-08 13h06.18.197862 +0530,
178,0,178,0,341.0397592999507,,340.9934666999616,10,341.0397592999507,341.0397592999507,0.023476400005165488,342.0531457999605,342.7059062999906,[0.05],[-0.06944444444444445],[1],[0],[0],[1.688841399969533],['target'],248650,001,2024-10-08_13h06.08.631,Vision search,2024.1.5,None,2024-10-08 13h06.18.197862 +0530,
179,0,179,0,342.7648396999575,,342.7100650999928,10,342.7648396999575,342.7648396999575,0.03435249999165535,343.7696160999476,344.9871415999951,[0.09166666666666666],[-0.21203703703703702],[1],[0],[0],[2.2431150000193156],['target'],248650,001,2024-10-08_13h06.08.631,Vision search,2024.1.5,None,2024-10-08 13h06.18.197862 +0530,
180,0,180,0,345.03512999997474,,344.99050590000115,10,345.03512999997474,345.03512999997474,0.022307699953671545,346.0358420999837,347.0372736999998,[0.3037037037037037],[0.3101851851851852],[1],[0],[0],[2.0249747000052594],['target'],248650,001,2024-10-08_13h06.08.631,Vision search,2024.1.5,None,2024-10-08 13h06.18.197862 +0530,
181,0,181,0,347.0847186999745,,347.0393242999562,10,347.0847186999745,347.0847186999745,0.020588800020050257,348.08524239994586,348.88657809997676,[-0.3907407407407407],[0.2916666666666667],[1],[0],[0],[1.8266941999900155],['target'],248650,001,2024-10-08_13h06.08.631,Vision search,2024.1.5,None,2024-10-08 13h06.18.197862 +0530,
182,0,182,0,348.9051071999711,,348.8885403999593,5,348.9051071999711,348.9051071999711,0.01049710001097992,349.9186302999733,350.7542966999463,[-0.4759259259259259],[-0.22314814814814815],[1],[0],[0],[1.855020000017248],['target'],248650,001,2024-10-08_13h06.08.631,Vision search,2024.1.5,None,2024-10-08 13h06.18.197862 +0530,
183,0,183,0,350.8015250999597,,350.7581566000008,10,350.8015250999597,350.8015250999597,0.026197400002274662,351.8010116999503,353.45259389997227,[0.3907407407407407],[0.34074074074074073],[1],[0],[0],[2.6686769000370987],['target'],248650,001,2024-10-08_13h06.08.631,Vision search,2024.1.5,None,2024-10-08 13h06.18.197862 +0530,
184,0,184,0,353.4840137999854,,353.45472429995425,10,353.4840137999854,353.4840137999854,0.02035579999210313,354.48384859994985,355.1683290999499,[0.43796296296296294],[0.15925925925925927],[1],[0],[0],[1.693246899987571],['target'],248650,001,2024-10-08_13h06.08.631,Vision search,2024.1.5,None,2024-10-08 13h06.18.197862 +0530,
185,0,185,0,355.1900626999559,,355.1711210999638,5,355.1900626999559,355.1900626999559,0.012649599986616522,356.20036709995475,357.35129899997264,[-0.24259259259259258],[-0.22592592592592592],[1],[0],[0],[2.1675107999471948],['target'],248650,001,2024-10-08_13h06.08.631,Vision search,2024.1.5,None,2024-10-08 13h06.18.197862 +0530,
186,0,186,0,357.37841349997325,,357.3560013999813,5,357.37841349997325,357.37841349997325,0.014347399992402643,358.38282399997115,359.300834099995,[-0.4425925925925926],[-0.1935185185185185],[1],[0],[0],[1.9309142000274733],['target'],248650,001,2024-10-08_13h06.08.631,Vision search,2024.1.5,None,2024-10-08 13h06.18.197862 +0530,
187,0,187,0,359.33347449998837,,359.304487699992,10,359.33347449998837,359.33347449998837,0.018739700026344508,360.3324753999477,361.2505616999697,[0.2722222222222222],[-0.16666666666666666],[1],[0],[0],[1.9276244000066072],['target'],248650,001,2024-10-08_13h06.08.631,Vision search,2024.1.5,None,2024-10-08 13h06.18.197862 +0530,
188,0,188,0,361.2827872999478,,361.2536198999733,10,361.2827872999478,361.2827872999478,0.019678200013004243,362.28251089999685,363.5332398999599,[-0.13703703703703704],[-0.2175925925925926],[1],[0],[0],[2.2603422000538558],['target'],248650,001,2024-10-08_13h06.08.631,Vision search,2024.1.5,None,2024-10-08 13h06.18.197862 +0530,
189,0,189,0,363.5550820999779,,363.5362221999676,5,363.5550820999779,363.5550820999779,0.01305589999537915,364.5649749999866,365.99920839996776,[0.24166666666666667],[-0.42314814814814816],[1],[0],[0],[2.4502579999971204],['target'],248650,001,2024-10-08_13h06.08.631,Vision search,2024.1.5,None,2024-10-08 13h06.18.197862 +0530,
190,0,190,0,366.03922299999977,,366.00332709995564,10,366.03922299999977,366.03922299999977,0.02547480002976954,367.0477574999677,367.865442099981,[0.075],[-0.26851851851851855],[1],[0],[0],[1.837102799967397],['target'],248650,001,2024-10-08_13h06.08.631,Vision search,2024.1.5,None,2024-10-08 13h06.18.197862 +0530,
191,0,191,0,367.89956979994895,,367.86837339994963,10,367.89956979994895,367.89956979994895,0.02189069997984916,368.91428099997574,369.6319663999602,[0.2638888888888889],[-0.005555555555555556],[1],[0],[0],[1.7420297999633476],['target'],248650,001,2024-10-08_13h06.08.631,Vision search,2024.1.5,None,2024-10-08 13h06.18.197862 +0530,
192,0,192,0,369.667421799968,,369.6356565999449,10,369.667421799968,369.667421799968,0.019737399998120964,370.68080529995495,371.2492545999703,[0.262037037037037],[-0.06666666666666667],[1],[0],[0],[1.594095800013747],['target'],248650,001,2024-10-08_13h06.08.631,Vision search,2024.1.5,None,2024-10-08 13h06.18.197862 +0530,
193,0,193,0,371.28249999997206,,371.2534366999753,5,371.28249999997206,371.28249999997206,0.01791420002700761,372.29685539996717,373.0317312999978,[0.4962962962962963],[-0.23981481481481481],[1],[0],[0],[1.7607044999604113],['target'],248650,001,2024-10-08_13h06.08.631,Vision search,2024.1.5,None,2024-10-08 13h06.18.197862 +0530,
194,0,194,0,373.0608363999636,,373.0366769999964,5,373.0608363999636,373.0608363999636,0.015426300000399351,374.0632463999791,375.13157489994774,[-0.5120370370370371],[-0.2824074074074074],[1],[0],[0],[2.0793872000067495],['target'],248650,001,2024-10-08_13h06.08.631,Vision search,2024.1.5,None,2024-10-08 13h06.18.197862 +0530,
195,0,195,0,375.18814019998536,,375.13535179995233,10,375.18814019998536,375.18814019998536,0.031792800000403076,376.1959486999549,376.84723699995084,[-0.053703703703703705],[0.325],[1],[0],[0],[1.680488999991212],['target'],248650,001,2024-10-08_13h06.08.631,Vision search,2024.1.5,None,2024-10-08 13h06.18.197862 +0530,
196,0,196,0,376.8757574999472,,376.85102889995323,5,376.8757574999472,376.8757574999472,0.013505099981557578,,377.71407159999944,[-0.053703703703703705],[0.32407407407407407],[1],[0],[0],[0.8498297000187449],['target'],248650,001,2024-10-08_13h06.08.631,Vision search,2024.1.5,None,2024-10-08 13h06.18.197862 +0530,
197,0,197,0,377.7351526999846,,377.71774439996807,5,377.7351526999846,377.7351526999846,0.012631599965970963,378.7457804000005,379.81400129996473,[-0.3962962962962963],[-0.32685185185185184],[1],[0],[0],[2.083769399963785],['target'],248650,001,2024-10-08_13h06.08.631,Vision search,2024.1.5,None,2024-10-08 13h06.18.197862 +0530,
198,0,198,0,379.8432756999973,,379.81846479995875,5,379.8432756999973,379.8432756999973,0.016889800026547164,380.8447225999553,381.3467646999634,[-0.40370370370370373],[0.04259259259259259],[1],[0],[0],[1.5117965000099503],['target'],248650,001,2024-10-08_13h06.08.631,Vision search,2024.1.5,None,2024-10-08 13h06.18.197862 +0530,
199,0,199,0,381.3747800999554,,381.351041899994,5,381.3747800999554,381.3747800999554,0.015444800024852157,382.37868329999037,382.680216299952,[0.09351851851851851],[0.16296296296296298],[1],[0],[0],[1.314107799960766],['target'],248650,001,2024-10-08_13h06.08.631,Vision search,2024.1.5,None,2024-10-08 13h06.18.197862 +0530,
